{
  "resourceType": "Bundle",
  "type": "batch",
  "entry": [
    {
      "resource": {
        "resourceType": "Organization",
        "id": "phema-org",
        "identifier": [
          {
            "system": "urn:ietf:rfc:3986",
            "value": "urn:uuid:b4c8ce08-2722-4406-93d5-00196e483fa6"
          }
        ],
        "active": true,
        "name": "Phenotype Execution & Modeling Architecture (PhEMA)",
        "alias": "PhEMA",
        "telecom": [
          {
            "system": "url",
            "value": "https://projectphema.org/"
          }
        ]
      },
      "request": {
        "method": "PUT",
        "url": "Organization/phema-org"
      }
    },
    {
      "resource": {
        "resourceType": "Binary",
        "id": "metadata-1516.thrombotic-event",
        "contentType": "application/json",
        "data": "eyJlcnJvciI6Ik5vIG1ldGFkYXRhIGF2YWlsYWJsZSJ9"
      },
      "request": {
        "method": "PUT",
        "url": "Binary/metadata-1516.thrombotic-event"
      }
    },
    {
      "resource": {
        "resourceType": "Library",
        "id": "library-1516.thrombotic-event-1.0.0",
        "identifier": [
          {
            "system": "https://workbench.phema.science/identifier/phenotype-library",
            "value": "1516.thrombotic-event"
          }
        ],
        "title": "1516.thrombotic-event Phenotype Definition",
        "name": "1516.thrombotic-event",
        "version": "1.0.0",
        "dataRequirement": [],
        "relatedArtifact": [
          {
            "type": "depends-on",
            "resource": "Library/library-FHIRHelpers-4.0.0"
          },
          {
            "type": "depends-on",
            "resource": "Library/library-PhEMATemporal-1.0.0"
          },
          {
            "type": "depends-on",
            "resource": "Library/library-PhEMAHelpers-1.0.0"
          }
        ],
        "content": [
          {
            "contentType": "text/cql",
            "data": ""
          },
          {
            "contentType": "application/elm+json",
            "data": ""
          }
        ]
      },
      "request": {
        "method": "PUT",
        "url": "Library/library-1516.thrombotic-event-1.0.0"
      }
    },
    {
      "resource": {
        "resourceType": "Library",
        "id": "library-FHIRHelpers-4.0.0",
        "identifier": [
          {
            "system": "https://workbench.phema.science/identifier/phenotype-library",
            "value": "FHIRHelpers"
          }
        ],
        "title": "FHIRHelpers Phenotype Definition",
        "name": "FHIRHelpers",
        "version": "4.0.0",
        "dataRequirement": [],
        "relatedArtifact": [],
        "content": [
          {
            "contentType": "text/cql",
            "data": ""
          },
          {
            "contentType": "application/elm+json",
            "data": ""
          }
        ]
      },
      "request": {
        "method": "PUT",
        "url": "Library/library-FHIRHelpers-4.0.0"
      }
    },
    {
      "resource": {
        "resourceType": "Library",
        "id": "library-PhEMATemporal-1.0.0",
        "identifier": [
          {
            "system": "https://workbench.phema.science/identifier/phenotype-library",
            "value": "PhEMATemporal"
          }
        ],
        "title": "PhEMATemporal Phenotype Definition",
        "name": "PhEMATemporal",
        "version": "1.0.0",
        "dataRequirement": [],
        "relatedArtifact": [
          {
            "type": "depends-on",
            "resource": "Library/library-FHIRHelpers-4.0.0"
          }
        ],
        "content": [
          {
            "contentType": "text/cql",
            "data": ""
          },
          {
            "contentType": "application/elm+json",
            "data": ""
          }
        ]
      },
      "request": {
        "method": "PUT",
        "url": "Library/library-PhEMATemporal-1.0.0"
      }
    },
    {
      "resource": {
        "resourceType": "Library",
        "id": "library-PhEMAHelpers-1.0.0",
        "identifier": [
          {
            "system": "https://workbench.phema.science/identifier/phenotype-library",
            "value": "PhEMAHelpers"
          }
        ],
        "title": "PhEMAHelpers Phenotype Definition",
        "name": "PhEMAHelpers",
        "version": "1.0.0",
        "dataRequirement": [],
        "relatedArtifact": [
          {
            "type": "depends-on",
            "resource": "Library/library-FHIRHelpers-4.0.0"
          },
          {
            "type": "depends-on",
            "resource": "Library/library-PhEMATemporal-1.0.0"
          }
        ],
        "content": [
          {
            "contentType": "text/cql",
            "data": ""
          },
          {
            "contentType": "application/elm+json",
            "data": ""
          }
        ]
      },
      "request": {
        "method": "PUT",
        "url": "Library/library-PhEMAHelpers-1.0.0"
      }
    },
    {
      "resource": {
        "resourceType": "ValueSet",
        "id": "1516.myocardial-infarction-dx",
        "url": "https://workbench.phema.science/fhir/ValueSet/1516.myocardial-infarction-dx",
        "name": "Myocardial Infarction Diagnoses",
        "status": "active",
        "publisher": "Project PhEMA",
        "compose": {
          "include": [
            {
              "system": "http://hl7.org/fhir/sid/icd-9-cm",
              "concept": [
                {
                  "code": "410.12",
                  "display": "Acute myocardial infarction of other anterior wall, subsequent episode of care"
                },
                {
                  "code": "410.2",
                  "display": "Acute myocardial infarction, of inferolateral wall"
                },
                {
                  "code": "410.20",
                  "display": "Acute myocardial infarction of inferolateral wall, episode of care unspecified"
                },
                {
                  "code": "410.21",
                  "display": "Acute myocardial infarction of inferolateral wall, initial episode of care"
                },
                {
                  "code": "410.7",
                  "display": "Acute myocardial infarction, subendocardial infarction"
                },
                {
                  "code": "410.9",
                  "display": "Acute myocardial infarction, unspecified site"
                },
                {
                  "code": "410.0",
                  "display": "Acute myocardial infarction, of anterolateral wall"
                },
                {
                  "code": "410.02",
                  "display": "Acute myocardial infarction of anterolateral wall, subsequent episode of care"
                },
                {
                  "code": "410.22",
                  "display": "Acute myocardial infarction of inferolateral wall, subsequent episode of care"
                },
                {
                  "code": "410.32",
                  "display": "Acute myocardial infarction of inferoposterior wall, subsequent episode of care"
                },
                {
                  "code": "410.92",
                  "display": "Acute myocardial infarction of unspecified site, subsequent episode of care"
                },
                {
                  "code": "410.01",
                  "display": "Acute myocardial infarction of anterolateral wall, initial episode of care"
                },
                {
                  "code": "410.00",
                  "display": "Acute myocardial infarction of anterolateral wall, episode of care unspecified"
                },
                {
                  "code": "410.4",
                  "display": "Acute myocardial infarction, of other inferior wall"
                },
                {
                  "code": "410.71",
                  "display": "Subendocardial infarction, initial episode of care"
                },
                {
                  "code": "410.91",
                  "display": "Acute myocardial infarction of unspecified site, initial episode of care"
                },
                {
                  "code": "410.30",
                  "display": "Acute myocardial infarction of inferoposterior wall, episode of care unspecified"
                },
                {
                  "code": "410.80",
                  "display": "Acute myocardial infarction of other specified sites, episode of care unspecified"
                },
                {
                  "code": "410.11",
                  "display": "Acute myocardial infarction of other anterior wall, initial episode of care"
                },
                {
                  "code": "410.60",
                  "display": "True posterior wall infarction, episode of care unspecified"
                },
                {
                  "code": "410.72",
                  "display": "Subendocardial infarction, subsequent episode of care"
                },
                {
                  "code": "410.5",
                  "display": "Acute myocardial infarction, of other lateral wall"
                },
                {
                  "code": "410.10",
                  "display": "Acute myocardial infarction of other anterior wall, episode of care unspecified"
                },
                {
                  "code": "410.62",
                  "display": "True posterior wall infarction, subsequent episode of care"
                },
                {
                  "code": "410",
                  "display": "Acute myocardial infarction"
                },
                {
                  "code": "410.3",
                  "display": "Acute myocardial infarction, of inferoposterior wall"
                },
                {
                  "code": "410.42",
                  "display": "Acute myocardial infarction of other inferior wall, subsequent episode of care"
                },
                {
                  "code": "410.50",
                  "display": "Acute myocardial infarction of other lateral wall, episode of care unspecified"
                },
                {
                  "code": "410.82",
                  "display": "Acute myocardial infarction of other specified sites, subsequent episode of care"
                },
                {
                  "code": "410.31",
                  "display": "Acute myocardial infarction of inferoposterior wall, initial episode of care"
                },
                {
                  "code": "410.1",
                  "display": "Acute myocardial infarction, of other anterior wall"
                },
                {
                  "code": "410.40",
                  "display": "Acute myocardial infarction of other inferior wall, episode of care unspecified"
                },
                {
                  "code": "410.51",
                  "display": "Acute myocardial infarction of other lateral wall, initial episode of care"
                },
                {
                  "code": "410.52",
                  "display": "Acute myocardial infarction of other lateral wall, subsequent episode of care"
                },
                {
                  "code": "410.6",
                  "display": "Acute myocardial infarction, true posterior wall infarction"
                },
                {
                  "code": "410.8",
                  "display": "Acute myocardial infarction, of other specified sites"
                },
                {
                  "code": "410.81",
                  "display": "Acute myocardial infarction of other specified sites, initial episode of care"
                },
                {
                  "code": "410.41",
                  "display": "Acute myocardial infarction of other inferior wall, initial episode of care"
                },
                {
                  "code": "410.70",
                  "display": "Subendocardial infarction, episode of care unspecified"
                },
                {
                  "code": "410.90",
                  "display": "Acute myocardial infarction of unspecified site, episode of care unspecified"
                },
                {
                  "code": "410.61",
                  "display": "True posterior wall infarction, initial episode of care"
                }
              ]
            },
            {
              "system": "http://hl7.org/fhir/sid/icd-10-cm",
              "concept": [
                {
                  "code": "I21.11",
                  "display": "ST elevation (STEMI) myocardial infarction involving right coronary artery"
                },
                {
                  "code": "I21.29",
                  "display": "ST elevation (STEMI) myocardial infarction involving other sites"
                },
                {
                  "code": "I21.01",
                  "display": "ST elevation (STEMI) myocardial infarction involving left main coronary artery"
                },
                {
                  "code": "I21.02",
                  "display": "ST elevation (STEMI) myocardial infarction involving left anterior descending coronary artery"
                },
                {
                  "code": "I21.21",
                  "display": "ST elevation (STEMI) myocardial infarction involving left circumflex coronary artery"
                },
                {
                  "code": "I21.09",
                  "display": "ST elevation (STEMI) myocardial infarction involving other coronary artery of anterior wall"
                },
                {
                  "code": "I21.19",
                  "display": "ST elevation (STEMI) myocardial infarction involving other coronary artery of inferior wall"
                },
                {
                  "code": "I21",
                  "display": "ST elevation (STEMI) and non-ST elevation (NSTEMI) myocardial infarction"
                },
                {
                  "code": "I21.0",
                  "display": "ST elevation (STEMI) myocardial infarction of anterior wall"
                },
                {
                  "code": "I21.1",
                  "display": "ST elevation (STEMI) myocardial infarction of inferior wall"
                },
                {
                  "code": "I21.2",
                  "display": "ST elevation (STEMI) myocardial infarction of other sites"
                },
                {
                  "code": "I21.3",
                  "display": "ST elevation (STEMI) myocardial infarction of unspecified site"
                },
                {
                  "code": "I21.4",
                  "display": "Non-ST elevation (NSTEMI) myocardial infarction"
                }
              ]
            }
          ]
        }
      },
      "request": {
        "method": "PUT",
        "url": "ValueSet/1516.myocardial-infarction-dx"
      }
    },
    {
      "resource": {
        "resourceType": "ValueSet",
        "id": "1516.troponin-labs",
        "url": "https://workbench.phema.science/fhir/ValueSet/1516.troponin-labs",
        "name": "Troponin Labs",
        "status": "active",
        "publisher": "Project PhEMA",
        "compose": {
          "include": [
            {
              "system": "http://loinc.org",
              "concept": [
                {
                  "code": "10839-9",
                  "display": "Troponin I.cardiac [Mass/volume] in Serum or Plasma"
                },
                {
                  "code": "42757-5",
                  "display": "Troponin I.cardiac [Mass/volume] in Blood"
                }
              ]
            }
          ]
        }
      },
      "request": {
        "method": "PUT",
        "url": "ValueSet/1516.troponin-labs"
      }
    },
    {
      "resource": {
        "resourceType": "ValueSet",
        "id": "1516.ecg-proc",
        "url": "https://workbench.phema.science/fhir/ValueSet/1516.ecg-proc",
        "name": "Echocardiogram",
        "status": "active",
        "publisher": "Project PhEMA",
        "compose": {
          "include": [
            {
              "system": "http://www.ama-assn.org/go/cpt",
              "concept": [
                {
                  "code": "0206T",
                  "display": "Computerized database analysis of multiple cycles of digitized cardiac electrical data from two or more ECG leads, including transmission to a remote center, application of multiple nonlinear mathematical transformations, with coronary artery obstruction "
                },
                {
                  "code": "93660",
                  "display": "Evaluation of cardiovascular function with tilt table evaluation, with continuous ECG monitoring and intermittent blood pressure monitoring, with or without pharmacological intervention"
                },
                {
                  "code": "93229",
                  "display": "External mobile cardiovascular telemetry with electrocardiographic recording, concurrent computerized real time data analysis and greater than 24 hours of accessible ECG data storage (retrievable with query) with ECG triggered and patient selected events "
                },
                {
                  "code": "93228",
                  "display": "External mobile cardiovascular telemetry with electrocardiographic recording, concurrent computerized real time data analysis and greater than 24 hours of accessible ECG data storage (retrievable with query) with ECG triggered and patient selected events "
                },
                {
                  "code": "93745",
                  "display": "Initial set-up and programming by a physician or other qualified health care professional of wearable cardioverter-defibrillator includes initial programming of system, establishing baseline electronic ECG, transmission of data to data repository, patient"
                },
                {
                  "code": "93798",
                  "display": "Physician or other qualified health care professional services for outpatient cardiac rehabilitation; with continuous ECG monitoring (per session)"
                },
                {
                  "code": "93042",
                  "display": "Rhythm ECG, 1-3 leads; interpretation and report only"
                },
                {
                  "code": "93041",
                  "display": "Rhythm ECG, 1-3 leads; tracing only without interpretation and report"
                },
                {
                  "code": "93040",
                  "display": "Rhythm ECG, 1-3 leads; with interpretation and report"
                },
                {
                  "code": "95807",
                  "display": "Sleep study, simultaneous recording of ventilation, respiratory effort, ECG or heart rate, and oxygen saturation, attended by a technologist"
                },
                {
                  "code": "0180T",
                  "display": "Electrocardiogram, 64 leads or greater, with graphic presentation and analysis; interpretation and report only"
                },
                {
                  "code": "0179T",
                  "display": "Electrocardiogram, 64 leads or greater, with graphic presentation and analysis; tracing and graphics only, without interpretation and report"
                },
                {
                  "code": "0178T",
                  "display": "Electrocardiogram, 64 leads or greater, with graphic presentation and analysis; with interpretation and report"
                }
              ]
            }
          ]
        }
      },
      "request": {
        "method": "PUT",
        "url": "ValueSet/1516.ecg-proc"
      }
    },
    {
      "resource": {
        "resourceType": "ValueSet",
        "id": "1516.coronary-angiogram-proc",
        "url": "https://workbench.phema.science/fhir/ValueSet/1516.coronary-angiogram-proc",
        "name": "Coronary Angiogram",
        "status": "active",
        "publisher": "Project PhEMA",
        "compose": {
          "include": [
            {
              "system": "http://www.ama-assn.org/go/cpt",
              "concept": [
                {
                  "code": "01920",
                  "display": "Anesthesia for cardiac catheterization including coronary angiography and ventriculography (not to include Swan-Ganz catheter)"
                },
                {
                  "code": "93454",
                  "display": "Catheter placement in coronary artery(s) for coronary angiography, including intraprocedural injection(s) for coronary angiography, imaging supervision and interpretation"
                },
                {
                  "code": "93455",
                  "display": "Catheter placement in coronary artery(s) for coronary angiography, including intraprocedural injection(s) for coronary angiography, imaging supervision and interpretation; with catheter placement(s) in bypass graft(s) (internal mammary, free arterial, ven"
                },
                {
                  "code": "93457",
                  "display": "Catheter placement in coronary artery(s) for coronary angiography, including intraprocedural injection(s) for coronary angiography, imaging supervision and interpretation; with catheter placement(s) in bypass graft(s) (internal mammary, free arterial, ven"
                },
                {
                  "code": "93459",
                  "display": "Catheter placement in coronary artery(s) for coronary angiography, including intraprocedural injection(s) for coronary angiography, imaging supervision and interpretation; with left heart catheterization including intraprocedural injection(s) for left ven"
                },
                {
                  "code": "93458",
                  "display": "Catheter placement in coronary artery(s) for coronary angiography, including intraprocedural injection(s) for coronary angiography, imaging supervision and interpretation; with left heart catheterization including intraprocedural injection(s) for left ven"
                },
                {
                  "code": "93461",
                  "display": "Catheter placement in coronary artery(s) for coronary angiography, including intraprocedural injection(s) for coronary angiography, imaging supervision and interpretation; with right and left heart catheterization including intraprocedural injection(s) fo"
                },
                {
                  "code": "93460",
                  "display": "Catheter placement in coronary artery(s) for coronary angiography, including intraprocedural injection(s) for coronary angiography, imaging supervision and interpretation; with right and left heart catheterization including intraprocedural injection(s) fo"
                },
                {
                  "code": "93456",
                  "display": "Catheter placement in coronary artery(s) for coronary angiography, including intraprocedural injection(s) for coronary angiography, imaging supervision and interpretation; with right heart catheterization"
                },
                {
                  "code": "93563",
                  "display": "Injection procedure during cardiac catheterization including imaging supervision, interpretation, and report; for selective coronary angiography during congenital heart catheterization (List separately in addition to code for primary procedure)"
                },
                {
                  "code": "93572",
                  "display": "Intravascular Doppler velocity and/or pressure derived coronary flow reserve measurement (coronary vessel or graft) during coronary angiography including pharmacologically induced stress; each additional vessel (List separately in addition to code for pri"
                },
                {
                  "code": "93571",
                  "display": "Intravascular Doppler velocity and/or pressure derived coronary flow reserve measurement (coronary vessel or graft) during coronary angiography including pharmacologically induced stress; initial vessel (List separately in addition to code for primary pro"
                },
                {
                  "code": "92975",
                  "display": "Thrombolysis, coronary; by intracoronary infusion, including selective coronary angiography"
                }
              ]
            },
            {
              "system": "http://snomed.info/sct",
              "concept": [
                {
                  "code": "33367005",
                  "display": "Coronary angiography"
                }
              ]
            }
          ]
        }
      },
      "request": {
        "method": "PUT",
        "url": "ValueSet/1516.coronary-angiogram-proc"
      }
    },
    {
      "resource": {
        "resourceType": "ValueSet",
        "id": "1516.stroke-dx",
        "url": "https://workbench.phema.science/fhir/ValueSet/1516.stroke-dx",
        "name": "Stroke Diagnoses",
        "status": "active",
        "publisher": "Project PhEMA",
        "compose": {
          "include": [
            {
              "system": "http://hl7.org/fhir/sid/icd-9-cm",
              "concept": [
                {
                  "code": "434.11",
                  "display": "Cerebral embolism with cerebral infarction"
                }
              ]
            },
            {
              "system": "http://hl7.org/fhir/sid/icd-10-cm",
              "concept": [
                {
                  "code": "I63.012",
                  "display": "Cerebral infarction due to thrombosis of left vertebral artery"
                },
                {
                  "code": "I63.09",
                  "display": "Cerebral infarction due to thrombosis of other precerebral artery"
                },
                {
                  "code": "I63.039",
                  "display": "Cerebral infarction due to thrombosis of unspecified carotid artery"
                },
                {
                  "code": "I63.111",
                  "display": "Cerebral infarction due to embolism of right vertebral artery"
                },
                {
                  "code": "I63.22",
                  "display": "Cerebral infarction due to unspecified occlusion or stenosis of basilar arteries"
                },
                {
                  "code": "I63.239",
                  "display": "Cerebral infarction due to unspecified occlusion or stenosis of unspecified carotid arteries"
                },
                {
                  "code": "I63.329",
                  "display": "Cerebral infarction due to thrombosis of unspecified anterior cerebral artery"
                },
                {
                  "code": "I63.342",
                  "display": "Cerebral infarction due to thrombosis of left cerebellar artery"
                },
                {
                  "code": "I63.219",
                  "display": "Cerebral infarction due to unspecified occlusion or stenosis of unspecified vertebral arteries"
                },
                {
                  "code": "I63.29",
                  "display": "Cerebral infarction due to unspecified occlusion or stenosis of other precerebral arteries"
                },
                {
                  "code": "I63.319",
                  "display": "Cerebral infarction due to thrombosis of unspecified middle cerebral artery"
                },
                {
                  "code": "I63.02",
                  "display": "Cerebral infarction due to thrombosis of basilar artery"
                },
                {
                  "code": "I63.20",
                  "display": "Cerebral infarction due to unspecified occlusion or stenosis of unspecified precerebral arteries"
                },
                {
                  "code": "I63.112",
                  "display": "Cerebral infarction due to embolism of left vertebral artery"
                },
                {
                  "code": "I63.311",
                  "display": "Cerebral infarction due to thrombosis of right middle cerebral artery"
                },
                {
                  "code": "I63.321",
                  "display": "Cerebral infarction due to thrombosis of right anterior cerebral artery"
                },
                {
                  "code": "I63.019",
                  "display": "Cerebral infarction due to thrombosis of unspecified vertebral artery"
                },
                {
                  "code": "I63.032",
                  "display": "Cerebral infarction due to thrombosis of left carotid artery"
                },
                {
                  "code": "I63.119",
                  "display": "Cerebral infarction due to embolism of unspecified vertebral artery"
                },
                {
                  "code": "I63.232",
                  "display": "Cerebral infarction due to unspecified occlusion or stenosis of left carotid arteries"
                },
                {
                  "code": "I63.10",
                  "display": "Cerebral infarction due to embolism of unspecified precerebral artery"
                },
                {
                  "code": "I63.312",
                  "display": "Cerebral infarction due to thrombosis of left middle cerebral artery"
                },
                {
                  "code": "I63.339",
                  "display": "Cerebral infarction due to thrombosis of unspecified posterior cerebral artery"
                },
                {
                  "code": "I63.132",
                  "display": "Cerebral infarction due to embolism of left carotid artery"
                },
                {
                  "code": "I63.211",
                  "display": "Cerebral infarction due to unspecified occlusion or stenosis of right vertebral arteries"
                },
                {
                  "code": "I63.139",
                  "display": "Cerebral infarction due to embolism of unspecified carotid artery"
                },
                {
                  "code": "I63.212",
                  "display": "Cerebral infarction due to unspecified occlusion or stenosis of left vertebral arteries"
                },
                {
                  "code": "I63.322",
                  "display": "Cerebral infarction due to thrombosis of left anterior cerebral artery"
                },
                {
                  "code": "I63.331",
                  "display": "Cerebral infarction due to thrombosis of right posterior cerebral artery"
                },
                {
                  "code": "I63.39",
                  "display": "Cerebral infarction due to thrombosis of other cerebral artery"
                },
                {
                  "code": "I63.031",
                  "display": "Cerebral infarction due to thrombosis of right carotid artery"
                },
                {
                  "code": "I63.12",
                  "display": "Cerebral infarction due to embolism of basilar artery"
                },
                {
                  "code": "I63.341",
                  "display": "Cerebral infarction due to thrombosis of right cerebellar artery"
                },
                {
                  "code": "I63.30",
                  "display": "Cerebral infarction due to thrombosis of unspecified cerebral artery"
                },
                {
                  "code": "I63.131",
                  "display": "Cerebral infarction due to embolism of right carotid artery"
                },
                {
                  "code": "I63.332",
                  "display": "Cerebral infarction due to thrombosis of left posterior cerebral artery"
                },
                {
                  "code": "I63.00",
                  "display": "Cerebral infarction due to thrombosis of unspecified precerebral artery"
                },
                {
                  "code": "I63.011",
                  "display": "Cerebral infarction due to thrombosis of right vertebral artery"
                },
                {
                  "code": "I63.231",
                  "display": "Cerebral infarction due to unspecified occlusion or stenosis of right carotid arteries"
                },
                {
                  "code": "I63.19",
                  "display": "Cerebral infarction due to embolism of other precerebral artery"
                },
                {
                  "code": "I63.349",
                  "display": "Cerebral infarction due to thrombosis of unspecified cerebellar artery"
                },
                {
                  "code": "I63.0",
                  "display": "Cerebral infarction due to thrombosis of precerebral arteries"
                },
                {
                  "code": "I63.01",
                  "display": "Cerebral infarction due to thrombosis of vertebral artery"
                },
                {
                  "code": "I63.03",
                  "display": "Cerebral infarction due to thrombosis of carotid artery"
                },
                {
                  "code": "I63.1",
                  "display": "Cerebral infarction due to embolism of precerebral arteries"
                },
                {
                  "code": "I63.11",
                  "display": "Cerebral infarction due to embolism of vertebral artery"
                },
                {
                  "code": "I63.13",
                  "display": "Cerebral infarction due to embolism of carotid artery"
                },
                {
                  "code": "I63.2",
                  "display": "Cerebral infarction due to unspecified occlusion or stenosis of precerebral arteries"
                },
                {
                  "code": "I63.21",
                  "display": "Cerebral infarction due to unspecified occlusion or stenosis of vertebral arteries"
                },
                {
                  "code": "I63.23",
                  "display": "Cerebral infarction due to unspecified occlusion or stenosis of carotid arteries"
                },
                {
                  "code": "I63.3",
                  "display": "Cerebral infarction due to thrombosis of cerebral arteries"
                },
                {
                  "code": "I63.31",
                  "display": "Cerebral infarction due to thrombosis of middle cerebral artery"
                },
                {
                  "code": "I63.32",
                  "display": "Cerebral infarction due to thrombosis of anterior cerebral artery"
                },
                {
                  "code": "I63.33",
                  "display": "Cerebral infarction due to thrombosis of posterior cerebral artery"
                },
                {
                  "code": "I63.34",
                  "display": "Cerebral infarction due to thrombosis of cerebellar artery"
                },
                {
                  "code": "I63.522",
                  "display": "Cerebral infarction due to unspecified occlusion or stenosis of left anterior cerebral artery"
                },
                {
                  "code": "I63.521",
                  "display": "Cerebral infarction due to unspecified occlusion or stenosis of right anterior cerebral artery"
                },
                {
                  "code": "I63.50",
                  "display": "Cerebral infarction due to unspecified occlusion or stenosis of unspecified cerebral artery"
                },
                {
                  "code": "I63.529",
                  "display": "Cerebral infarction due to unspecified occlusion or stenosis of unspecified anterior cerebral artery"
                },
                {
                  "code": "I63.532",
                  "display": "Cerebral infarction due to unspecified occlusion or stenosis of left posterior cerebral artery"
                },
                {
                  "code": "I63.541",
                  "display": "Cerebral infarction due to unspecified occlusion or stenosis of right cerebellar artery"
                },
                {
                  "code": "I63.512",
                  "display": "Cerebral infarction due to unspecified occlusion or stenosis of left middle cerebral artery"
                },
                {
                  "code": "I63.531",
                  "display": "Cerebral infarction due to unspecified occlusion or stenosis of right posterior cerebral artery"
                },
                {
                  "code": "I63.539",
                  "display": "Cerebral infarction due to unspecified occlusion or stenosis of unspecified posterior cerebral artery"
                },
                {
                  "code": "I63.549",
                  "display": "Cerebral infarction due to unspecified occlusion or stenosis of unspecified cerebellar artery"
                },
                {
                  "code": "I63.542",
                  "display": "Cerebral infarction due to unspecified occlusion or stenosis of left cerebellar artery"
                },
                {
                  "code": "I63.519",
                  "display": "Cerebral infarction due to unspecified occlusion or stenosis of unspecified middle cerebral artery"
                },
                {
                  "code": "I63.59",
                  "display": "Cerebral infarction due to unspecified occlusion or stenosis of other cerebral artery"
                },
                {
                  "code": "I63.511",
                  "display": "Cerebral infarction due to unspecified occlusion or stenosis of right middle cerebral artery"
                },
                {
                  "code": "I63.5",
                  "display": "Cerebral infarction due to unspecified occlusion or stenosis of cerebral arteries"
                },
                {
                  "code": "I63.51",
                  "display": "Cerebral infarction due to unspecified occlusion or stenosis of middle cerebral artery"
                },
                {
                  "code": "I63.52",
                  "display": "Cerebral infarction due to unspecified occlusion or stenosis of anterior cerebral artery"
                },
                {
                  "code": "I63.53",
                  "display": "Cerebral infarction due to unspecified occlusion or stenosis of posterior cerebral artery"
                },
                {
                  "code": "I63.54",
                  "display": "Cerebral infarction due to unspecified occlusion or stenosis of cerebellar artery"
                },
                {
                  "code": "I63.6",
                  "display": "Cerebral infarction due to cerebral venous thrombosis, nonpyogenic"
                },
                {
                  "code": "I63.8",
                  "display": "Other cerebral infarction"
                },
                {
                  "code": "I63.9",
                  "display": "Cerebral infarction, unspecified"
                }
              ]
            }
          ]
        }
      },
      "request": {
        "method": "PUT",
        "url": "ValueSet/1516.stroke-dx"
      }
    },
    {
      "resource": {
        "resourceType": "ValueSet",
        "id": "1516.stroke-meds",
        "url": "https://workbench.phema.science/fhir/ValueSet/1516.stroke-meds",
        "name": "Stroke Medications",
        "status": "active",
        "publisher": "Project PhEMA",
        "compose": {
          "include": [
            {
              "system": "http://www.nlm.nih.gov/research/umls/rxnorm",
              "concept": [
                {
                  "code": "1191",
                  "display": "Aspirin"
                },
                {
                  "code": "32968",
                  "display": "clopidogrel"
                }
              ]
            }
          ]
        }
      },
      "request": {
        "method": "PUT",
        "url": "ValueSet/1516.stroke-meds"
      }
    },
    {
      "resource": {
        "resourceType": "ValueSet",
        "id": "1516.carotid-duplex",
        "url": "https://workbench.phema.science/fhir/ValueSet/1516.carotid-duplex",
        "name": "Carotid Duplex",
        "status": "active",
        "publisher": "Project PhEMA",
        "compose": {
          "include": [
            {
              "system": "http://www.ama-assn.org/go/cpt",
              "concept": [
                {
                  "code": "93880",
                  "display": "Duplex scan of extracranial arteries; complete bilateral study"
                }
              ]
            }
          ]
        }
      },
      "request": {
        "method": "PUT",
        "url": "ValueSet/1516.carotid-duplex"
      }
    },
    {
      "resource": {
        "resourceType": "ValueSet",
        "id": "1516.neurology-encounter",
        "url": "https://workbench.phema.science/fhir/ValueSet/1516.neurology-encounter",
        "name": "Neurology Encounter",
        "status": "active",
        "publisher": "Project PhEMA",
        "compose": {
          "include": [
            {
              "system": "http://snomed.info/sct",
              "concept": [
                {
                  "code": "702832002",
                  "display": "Child and adolescent neurology clinic"
                },
                {
                  "code": "16879004",
                  "display": "Free-standing neurology clinic"
                },
                {
                  "code": "38238005",
                  "display": "Hospital-based outpatient neurology clinic"
                },
                {
                  "code": "702887001",
                  "display": "Neurology clinic"
                }
              ]
            }
          ]
        }
      },
      "request": {
        "method": "PUT",
        "url": "ValueSet/1516.neurology-encounter"
      }
    },
    {
      "resource": {
        "resourceType": "ValueSet",
        "id": "1516.ct-scan-head-proc",
        "url": "https://workbench.phema.science/fhir/ValueSet/1516.ct-scan-head-proc",
        "name": "CT Scan of Head",
        "status": "active",
        "publisher": "Project PhEMA",
        "compose": {
          "include": [
            {
              "system": "http://www.ama-assn.org/go/cpt",
              "concept": [
                {
                  "code": "70450",
                  "display": "Computed tomography, head or brain; without contrast material"
                }
              ]
            }
          ]
        }
      },
      "request": {
        "method": "PUT",
        "url": "ValueSet/1516.ct-scan-head-proc"
      }
    },
    {
      "resource": {
        "resourceType": "ValueSet",
        "id": "1516.mri-brain-proc",
        "url": "https://workbench.phema.science/fhir/ValueSet/1516.mri-brain-proc",
        "name": "MRI Brain",
        "status": "active",
        "publisher": "Project PhEMA",
        "compose": {
          "include": [
            {
              "system": "http://www.ama-assn.org/go/cpt",
              "concept": [
                {
                  "code": "70554",
                  "display": "Magnetic resonance imaging, brain, functional MRI; including test selection and administration of repetitive body part movement and/or visual stimulation, not requiring physician or psychologist administration"
                },
                {
                  "code": "70555",
                  "display": "Magnetic resonance imaging, brain, functional MRI; requiring physician or psychologist administration of entire neurofunctional testing"
                }
              ]
            }
          ]
        }
      },
      "request": {
        "method": "PUT",
        "url": "ValueSet/1516.mri-brain-proc"
      }
    },
    {
      "resource": {
        "resourceType": "ValueSet",
        "id": "1516.deep-vein-thrombosis-dx",
        "url": "https://workbench.phema.science/fhir/ValueSet/1516.deep-vein-thrombosis-dx",
        "name": "Deep Vein Thrombosis Diagnoses",
        "status": "active",
        "publisher": "Project PhEMA",
        "compose": {
          "include": [
            {
              "system": "http://hl7.org/fhir/sid/icd-9-cm",
              "concept": [
                {
                  "code": "453.42",
                  "display": "Acute venous embolism and thrombosis of deep vessels of distal lower extremity"
                },
                {
                  "code": "453.40",
                  "display": "Acute venous embolism and thrombosis of unspecified deep vessels of lower extremity"
                },
                {
                  "code": "453.41",
                  "display": "Acute venous embolism and thrombosis of deep vessels of proximal lower extremity"
                },
                {
                  "code": "453.4",
                  "display": "Acute venous embolism and thrombosis of deep vessels of lower extremity"
                }
              ]
            },
            {
              "system": "http://hl7.org/fhir/sid/icd-10-cm",
              "concept": [
                {
                  "code": "I82.413",
                  "display": "Acute embolism and thrombosis of femoral vein, bilateral"
                },
                {
                  "code": "I82.439",
                  "display": "Acute embolism and thrombosis of unspecified popliteal vein"
                },
                {
                  "code": "I82.491",
                  "display": "Acute embolism and thrombosis of other specified deep vein of right lower extremity"
                },
                {
                  "code": "I82.402",
                  "display": "Acute embolism and thrombosis of unspecified deep veins of left lower extremity"
                },
                {
                  "code": "I82.422",
                  "display": "Acute embolism and thrombosis of left iliac vein"
                },
                {
                  "code": "I82.499",
                  "display": "Acute embolism and thrombosis of other specified deep vein of unspecified lower extremity"
                },
                {
                  "code": "I82.401",
                  "display": "Acute embolism and thrombosis of unspecified deep veins of right lower extremity"
                },
                {
                  "code": "I82.421",
                  "display": "Acute embolism and thrombosis of right iliac vein"
                },
                {
                  "code": "I82.432",
                  "display": "Acute embolism and thrombosis of left popliteal vein"
                },
                {
                  "code": "I82.442",
                  "display": "Acute embolism and thrombosis of left tibial vein"
                },
                {
                  "code": "I82.4Z1",
                  "display": "Acute embolism and thrombosis of unspecified deep veins of right distal lower extremity"
                },
                {
                  "code": "I82.431",
                  "display": "Acute embolism and thrombosis of right popliteal vein"
                },
                {
                  "code": "I82.449",
                  "display": "Acute embolism and thrombosis of unspecified tibial vein"
                },
                {
                  "code": "I82.409",
                  "display": "Acute embolism and thrombosis of unspecified deep veins of unspecified lower extremity"
                },
                {
                  "code": "I82.493",
                  "display": "Acute embolism and thrombosis of other specified deep vein of lower extremity, bilateral"
                },
                {
                  "code": "I82.4Y2",
                  "display": "Acute embolism and thrombosis of unspecified deep veins of left proximal lower extremity"
                },
                {
                  "code": "I82.4Z2",
                  "display": "Acute embolism and thrombosis of unspecified deep veins of left distal lower extremity"
                },
                {
                  "code": "I82.403",
                  "display": "Acute embolism and thrombosis of unspecified deep veins of lower extremity, bilateral"
                },
                {
                  "code": "I82.4Y3",
                  "display": "Acute embolism and thrombosis of unspecified deep veins of proximal lower extremity, bilateral"
                },
                {
                  "code": "I82.411",
                  "display": "Acute embolism and thrombosis of right femoral vein"
                },
                {
                  "code": "I82.443",
                  "display": "Acute embolism and thrombosis of tibial vein, bilateral"
                },
                {
                  "code": "I82.412",
                  "display": "Acute embolism and thrombosis of left femoral vein"
                },
                {
                  "code": "I82.4Z9",
                  "display": "Acute embolism and thrombosis of unspecified deep veins of unspecified distal lower extremity"
                },
                {
                  "code": "I82.429",
                  "display": "Acute embolism and thrombosis of unspecified iliac vein"
                },
                {
                  "code": "I82.433",
                  "display": "Acute embolism and thrombosis of popliteal vein, bilateral"
                },
                {
                  "code": "I82.441",
                  "display": "Acute embolism and thrombosis of right tibial vein"
                },
                {
                  "code": "I82.492",
                  "display": "Acute embolism and thrombosis of other specified deep vein of left lower extremity"
                },
                {
                  "code": "I82.4Y1",
                  "display": "Acute embolism and thrombosis of unspecified deep veins of right proximal lower extremity"
                },
                {
                  "code": "I82.419",
                  "display": "Acute embolism and thrombosis of unspecified femoral vein"
                },
                {
                  "code": "I82.423",
                  "display": "Acute embolism and thrombosis of iliac vein, bilateral"
                },
                {
                  "code": "I82.4Y9",
                  "display": "Acute embolism and thrombosis of unspecified deep veins of unspecified proximal lower extremity"
                },
                {
                  "code": "I82.4Z3",
                  "display": "Acute embolism and thrombosis of unspecified deep veins of distal lower extremity, bilateral"
                },
                {
                  "code": "I82.4",
                  "display": "Acute embolism and thrombosis of deep veins of lower extremity"
                },
                {
                  "code": "I82.41",
                  "display": "Acute embolism and thrombosis of femoral vein"
                },
                {
                  "code": "I82.42",
                  "display": "Acute embolism and thrombosis of iliac vein"
                },
                {
                  "code": "I82.43",
                  "display": "Acute embolism and thrombosis of popliteal vein"
                },
                {
                  "code": "I82.44",
                  "display": "Acute embolism and thrombosis of tibial vein"
                },
                {
                  "code": "I82.49",
                  "display": "Acute embolism and thrombosis of other specified deep vein of lower extremity"
                },
                {
                  "code": "I82.4Y",
                  "display": "Acute embolism and thrombosis of unspecified deep veins of proximal lower extremity"
                },
                {
                  "code": "I82.4Z",
                  "display": "Acute embolism and thrombosis of unspecified deep veins of distal lower extremity"
                },
                {
                  "code": "I82.40",
                  "display": "Acute embolism and thrombosis of unspecified deep veins of lower extremity"
                }
              ]
            }
          ]
        }
      },
      "request": {
        "method": "PUT",
        "url": "ValueSet/1516.deep-vein-thrombosis-dx"
      }
    },
    {
      "resource": {
        "resourceType": "ValueSet",
        "id": "1516.d-dimer-fibrin-labs",
        "url": "https://workbench.phema.science/fhir/ValueSet/1516.d-dimer-fibrin-labs",
        "name": "D-Dimer Fibrin Labs",
        "status": "active",
        "publisher": "Project PhEMA",
        "compose": {
          "include": [
            {
              "system": "http://loinc.org",
              "concept": [
                {
                  "code": "48065-7",
                  "display": "Fibrin D-dimer FEU"
                },
                {
                  "code": "48058-2",
                  "display": "Fibrin D-dimer DDU [Mass/volume] in Platelet poor plasma by Immunoassay"
                },
                {
                  "code": "48066-5",
                  "display": "Fibrin D-dimer DDU"
                }
              ]
            }
          ]
        }
      },
      "request": {
        "method": "PUT",
        "url": "ValueSet/1516.d-dimer-fibrin-labs"
      }
    },
    {
      "resource": {
        "resourceType": "ValueSet",
        "id": "1516.pulmonary-embolism-dx",
        "url": "https://workbench.phema.science/fhir/ValueSet/1516.pulmonary-embolism-dx",
        "name": "Pulmonary Embolism Diagnoses",
        "status": "active",
        "publisher": "Project PhEMA",
        "compose": {
          "include": [
            {
              "system": "http://hl7.org/fhir/sid/icd-9-cm",
              "concept": [
                {
                  "code": "415.1",
                  "display": "Pulmonary embolism and infarction"
                },
                {
                  "code": "415.12",
                  "display": "Septic pulmonary embolism"
                },
                {
                  "code": "415.19",
                  "display": "Other pulmonary embolism and infarction"
                },
                {
                  "code": "415.11",
                  "display": "Iatrogenic pulmonary embolism and infarction"
                },
                {
                  "code": "415.13",
                  "display": "Saddle embolus of pulmonary artery"
                }
              ]
            },
            {
              "system": "http://hl7.org/fhir/sid/icd-10-cm",
              "concept": [
                {
                  "code": "I26.92",
                  "display": "Saddle embolus of pulmonary artery without acute cor pulmonale"
                },
                {
                  "code": "I26.99",
                  "display": "Other pulmonary embolism without acute cor pulmonale"
                },
                {
                  "code": "I26.90",
                  "display": "Septic pulmonary embolism without acute cor pulmonale"
                },
                {
                  "code": "I26.9",
                  "display": "Pulmonary embolism without acute cor pulmonale"
                }
              ]
            }
          ]
        }
      },
      "request": {
        "method": "PUT",
        "url": "ValueSet/1516.pulmonary-embolism-dx"
      }
    },
    {
      "resource": {
        "resourceType": "ValueSet",
        "id": "1516.ct-scan-chest",
        "url": "https://workbench.phema.science/fhir/ValueSet/1516.ct-scan-chest",
        "name": "CT Scan of Chest",
        "status": "active",
        "publisher": "Project PhEMA",
        "compose": {
          "include": [
            {
              "system": "http://www.ama-assn.org/go/cpt",
              "concept": [
                {
                  "code": "71250",
                  "display": "Computed tomography, thorax; without contrast material"
                }
              ]
            }
          ]
        }
      },
      "request": {
        "method": "PUT",
        "url": "ValueSet/1516.ct-scan-chest"
      }
    },
    {
      "resource": {
        "resourceType": "ValueSet",
        "id": "1516.vq-scan",
        "url": "https://workbench.phema.science/fhir/ValueSet/1516.vq-scan",
        "name": "Ventilation-Perfusion Scan",
        "status": "active",
        "publisher": "Project PhEMA",
        "compose": {
          "include": [
            {
              "system": "http://www.ama-assn.org/go/cpt",
              "concept": [
                {
                  "code": "78582",
                  "display": "Pulmonary ventilation (eg, aerosol or gas) and perfusion imaging"
                }
              ]
            }
          ]
        }
      },
      "request": {
        "method": "PUT",
        "url": "ValueSet/1516.vq-scan"
      }
    },
    {
      "resource": {
        "resourceType": "ValueSet",
        "id": "1516.mesenteric-splanchnic-thrombosis-dx",
        "url": "https://workbench.phema.science/fhir/ValueSet/1516.mesenteric-splanchnic-thrombosis-dx",
        "name": "Mesenteric-Splanchnic Thrombosis Diagnoses",
        "status": "active",
        "publisher": "Project PhEMA",
        "compose": {
          "include": [
            {
              "system": "http://hl7.org/fhir/sid/icd-9-cm",
              "concept": [
                {
                  "code": "557.0",
                  "display": "Acute vascular insufficiency of intestine"
                },
                {
                  "code": "444.89",
                  "display": "Embolism and thrombosis of other specified artery"
                }
              ]
            },
            {
              "system": "http://hl7.org/fhir/sid/icd-10-cm",
              "concept": [
                {
                  "code": "I81",
                  "display": "Portal vein thrombosis"
                },
                {
                  "code": "K55.0",
                  "display": "Acute vascular disorders of intestine"
                },
                {
                  "code": "I82.0",
                  "display": "Budd-Chiari syndrome"
                },
                {
                  "code": "I74.8",
                  "display": "Embolism and thrombosis of other arteries"
                }
              ]
            }
          ]
        }
      },
      "request": {
        "method": "PUT",
        "url": "ValueSet/1516.mesenteric-splanchnic-thrombosis-dx"
      }
    },
    {
      "resource": {
        "resourceType": "ValueSet",
        "id": "1516.ultrasonography-proc",
        "url": "https://workbench.phema.science/fhir/ValueSet/1516.ultrasonography-proc",
        "name": "Ultrasonography",
        "status": "active",
        "publisher": "Project PhEMA",
        "compose": {
          "include": [
            {
              "system": "http://www.ama-assn.org/go/cpt",
              "concept": [
                {
                  "code": "76999",
                  "display": "Unlisted ultrasound procedure (eg, diagnostic, interventional)"
                }
              ]
            }
          ]
        }
      },
      "request": {
        "method": "PUT",
        "url": "ValueSet/1516.ultrasonography-proc"
      }
    },
    {
      "resource": {
        "resourceType": "ValueSet",
        "id": "1516.ct-scan-abdomen",
        "url": "https://workbench.phema.science/fhir/ValueSet/1516.ct-scan-abdomen",
        "name": "CT Scan of Abdomen",
        "status": "active",
        "publisher": "Project PhEMA",
        "compose": {
          "include": [
            {
              "system": "http://www.ama-assn.org/go/cpt",
              "concept": [
                {
                  "code": "1010526",
                  "display": "Computed tomography, abdomen"
                }
              ]
            }
          ]
        }
      },
      "request": {
        "method": "PUT",
        "url": "ValueSet/1516.ct-scan-abdomen"
      }
    },
    {
      "resource": {
        "resourceType": "ValueSet",
        "id": "1516.mri-proc",
        "url": "https://workbench.phema.science/fhir/ValueSet/1516.mri-proc",
        "name": "MRI",
        "status": "active",
        "publisher": "Project PhEMA",
        "compose": {
          "include": [
            {
              "system": "http://snomed.info/sct",
              "concept": [
                {
                  "code": "113091000",
                  "display": "Magnetic resonance imaging"
                }
              ]
            }
          ]
        }
      },
      "request": {
        "method": "PUT",
        "url": "ValueSet/1516.mri-proc"
      }
    },
    {
      "resource": {
        "resourceType": "ValueSet",
        "id": "1516.superficial-vein-thrombosis-dx",
        "url": "https://workbench.phema.science/fhir/ValueSet/1516.superficial-vein-thrombosis-dx",
        "name": "Superficial Vein Thrombosis Diagnoses",
        "status": "active",
        "publisher": "Project PhEMA",
        "compose": {
          "include": [
            {
              "system": "http://hl7.org/fhir/sid/icd-9-cm",
              "concept": [
                {
                  "code": "453.6",
                  "display": "Venous embolism and thrombosis of superficial vessels of lower extremity"
                },
                {
                  "code": "451.89",
                  "display": "Phlebitis and thrombophlebitis of other sites"
                },
                {
                  "code": "453.82",
                  "display": "Acute venous embolism and thrombosis of deep veins of upper extremity"
                }
              ]
            },
            {
              "system": "http://hl7.org/fhir/sid/icd-10-cm",
              "concept": [
                {
                  "code": "I82.81",
                  "display": "Embolism and thrombosis of superficial veins of lower extremities"
                },
                {
                  "code": "I80.02",
                  "display": "Phlebitis and thrombophlebitis of superficial vessels of left lower extremity"
                },
                {
                  "code": "I80.00",
                  "display": "Phlebitis and thrombophlebitis of superficial vessels of unspecified lower extremity"
                },
                {
                  "code": "I80.01",
                  "display": "Phlebitis and thrombophlebitis of superficial vessels of right lower extremity"
                },
                {
                  "code": "I80.03",
                  "display": "Phlebitis and thrombophlebitis of superficial vessels of lower extremities, bilateral"
                },
                {
                  "code": "I80.0",
                  "display": "Phlebitis and thrombophlebitis of superficial vessels of lower extremities"
                },
                {
                  "code": "I82.61",
                  "display": "Acute embolism and thrombosis of superficial veins of upper extremity"
                }
              ]
            }
          ]
        }
      },
      "request": {
        "method": "PUT",
        "url": "ValueSet/1516.superficial-vein-thrombosis-dx"
      }
    },
    {
      "resource": {
        "resourceType": "ValueSet",
        "id": "1516.other-arterial-thrombosis-dx",
        "url": "https://workbench.phema.science/fhir/ValueSet/1516.other-arterial-thrombosis-dx",
        "name": "Other Arterial Thrombosis Diagnoses",
        "status": "active",
        "publisher": "Project PhEMA",
        "compose": {
          "include": [
            {
              "system": "http://hl7.org/fhir/sid/icd-9-cm",
              "concept": [
                {
                  "code": "444.1",
                  "display": "Embolism and thrombosis of thoracic aorta"
                },
                {
                  "code": "444.22",
                  "display": "Arterial embolism and thrombosis of lower extremity"
                },
                {
                  "code": "453.3",
                  "display": "Other venous embolism and thrombosis of renal vein"
                }
              ]
            },
            {
              "system": "http://hl7.org/fhir/sid/icd-10-cm",
              "concept": [
                {
                  "code": "I74.10",
                  "display": "Embolism and thrombosis of unspecified parts of aorta"
                },
                {
                  "code": "I74.11",
                  "display": "Embolism and thrombosis of thoracic aorta"
                },
                {
                  "code": "I74.19",
                  "display": "Embolism and thrombosis of other parts of aorta"
                },
                {
                  "code": "I74.01",
                  "display": "Saddle embolus of abdominal aorta"
                },
                {
                  "code": "I74.09",
                  "display": "Other arterial embolism and thrombosis of abdominal aorta"
                },
                {
                  "code": "I74",
                  "display": "Arterial embolism and thrombosis"
                },
                {
                  "code": "I74.1",
                  "display": "Embolism and thrombosis of other and unspecified parts of aorta"
                },
                {
                  "code": "I74.0",
                  "display": "Embolism and thrombosis of abdominal aorta"
                },
                {
                  "code": "I74.2",
                  "display": "Embolism and thrombosis of arteries of the upper extremities"
                },
                {
                  "code": "I74.3",
                  "display": "Embolism and thrombosis of arteries of the lower extremities"
                },
                {
                  "code": "I74.4",
                  "display": "Embolism and thrombosis of arteries of extremities, unspecified"
                },
                {
                  "code": "I74.5",
                  "display": "Embolism and thrombosis of iliac artery"
                },
                {
                  "code": "I74.8",
                  "display": "Embolism and thrombosis of other arteries"
                },
                {
                  "code": "I74.9",
                  "display": "Embolism and thrombosis of unspecified artery"
                },
                {
                  "code": "I65.1",
                  "display": "Occlusion and stenosis of basilar artery"
                },
                {
                  "code": "I82.3",
                  "display": "Embolism and thrombosis of renal vein"
                }
              ]
            }
          ]
        }
      },
      "request": {
        "method": "PUT",
        "url": "ValueSet/1516.other-arterial-thrombosis-dx"
      }
    },
    {
      "resource": {
        "resourceType": "ValueSet",
        "id": "1516.placenta-thrombosis-dx",
        "url": "https://workbench.phema.science/fhir/ValueSet/1516.placenta-thrombosis-dx",
        "name": "Placenta Thrombosis Diagnoses",
        "status": "active",
        "publisher": "Project PhEMA",
        "compose": {
          "include": [
            {
              "system": "http://hl7.org/fhir/sid/icd-9-cm",
              "concept": [
                {
                  "code": "663.63",
                  "display": "Vascular lesions of cord complicating labor and delivery, antepartum condition or complication"
                },
                {
                  "code": "663.61",
                  "display": "Vascular lesions of cord complicating labor and delivery, delivered, with or without mention of antepartum condition"
                },
                {
                  "code": "663.60",
                  "display": "Vascular lesions of cord complicating labor and delivery, unspecified as to episode of care or not applicable"
                },
                {
                  "code": "663.6",
                  "display": "Vascular lesions of cord complicating labor and delivery"
                }
              ]
            },
            {
              "system": "http://hl7.org/fhir/sid/icd-10-cm",
              "concept": [
                {
                  "code": "O43.813",
                  "display": "Placental infarction, third trimester"
                }
              ]
            }
          ]
        }
      },
      "request": {
        "method": "PUT",
        "url": "ValueSet/1516.placenta-thrombosis-dx"
      }
    },
    {
      "resource": {
        "resourceType": "ValueSet",
        "id": "1516.central-nervous-system-thrombosis-dx",
        "url": "https://workbench.phema.science/fhir/ValueSet/1516.central-nervous-system-thrombosis-dx",
        "name": "Central Nervous System (CNS) Thrombosis Diagnoses",
        "status": "active",
        "publisher": "Project PhEMA",
        "compose": {
          "include": [
            {
              "system": "http://hl7.org/fhir/sid/icd-9-cm",
              "concept": [
                {
                  "code": "437.6",
                  "display": "Nonpyogenic thrombosis of intracranial venous sinus"
                }
              ]
            },
            {
              "system": "http://hl7.org/fhir/sid/icd-10-cm",
              "concept": [
                {
                  "code": "I67.6",
                  "display": "Nonpyogenic thrombosis of intracranial venous system"
                }
              ]
            }
          ]
        }
      },
      "request": {
        "method": "PUT",
        "url": "ValueSet/1516.central-nervous-system-thrombosis-dx"
      }
    },
    {
      "resource": {
        "resourceType": "ValueSet",
        "id": "1516.endocarial-thrombosis-dx",
        "url": "https://workbench.phema.science/fhir/ValueSet/1516.endocarial-thrombosis-dx",
        "name": "Endocardial Thrombosis Diagnoses",
        "status": "active",
        "publisher": "Project PhEMA",
        "compose": {
          "include": [
            {
              "system": "http://hl7.org/fhir/sid/icd-9-cm",
              "concept": [
                {
                  "code": "996.71",
                  "display": "Other complications due to heart valve prosthesis"
                },
                {
                  "code": "444.9",
                  "display": "Embolism and thrombosis of unspecified artery"
                }
              ]
            },
            {
              "system": "http://hl7.org/fhir/sid/icd-10-cm",
              "concept": [
                {
                  "code": "I34.8",
                  "display": "Other nonrheumatic mitral valve disorders"
                },
                {
                  "code": "I51.3",
                  "display": "Intracardiac thrombosis, not elsewhere classified"
                }
              ]
            }
          ]
        }
      },
      "request": {
        "method": "PUT",
        "url": "ValueSet/1516.endocarial-thrombosis-dx"
      }
    },
    {
      "resource": {
        "resourceType": "ValueSet",
        "id": "2.16.840.1.113883.17.4077.2.1012",
        "meta": {
          "versionId": "52",
          "lastUpdated": "2020-09-09T01:00:32.000-04:00"
        },
        "text": {
          "status": "generated",
          "div": "<div xmlns=\"http://www.w3.org/1999/xhtml\"><h2>Anticoagulant</h2><p>This value set includes codes from the following code systems:</p><ul><li>Include these codes as defined in <a href=\"http://www.nlm.nih.gov/research/umls/rxnorm\"><code>http://www.nlm.nih.gov/research/umls/rxnorm</code></a><table class=\"none\"><tr><td><b>Code</b></td><td><b>Display</b></td></tr><tr><td>1008696</td><td>dalteparin / dihydroergotamine</td><td/></tr><tr><td>1037041</td><td>dabigatran etexilate mesylate</td><td/></tr><tr><td>1037042</td><td>dabigatran etexilate</td><td/></tr><tr><td>1037043</td><td>dabigatran etexilate 150 MG</td><td/></tr><tr><td>1037044</td><td>dabigatran etexilate Oral Capsule</td><td/></tr><tr><td>1037045</td><td>dabigatran etexilate 150 MG Oral Capsule</td><td/></tr><tr><td>1037046</td><td>Pradaxa</td><td/></tr><tr><td>1037047</td><td>dabigatran etexilate 150 MG [Pradaxa]</td><td/></tr><tr><td>1037048</td><td>dabigatran etexilate Oral Capsule [Pradaxa]</td><td/></tr><tr><td>1037049</td><td>dabigatran etexilate 150 MG Oral Capsule [Pradaxa]</td><td/></tr><tr><td>1037178</td><td>dabigatran etexilate 75 MG</td><td/></tr><tr><td>1037179</td><td>dabigatran etexilate 75 MG Oral Capsule</td><td/></tr><tr><td>1037180</td><td>dabigatran etexilate 75 MG [Pradaxa]</td><td/></tr><tr><td>1037181</td><td>dabigatran etexilate 75 MG Oral Capsule [Pradaxa]</td><td/></tr><tr><td>104466</td><td>tinzaparin sodium</td><td/></tr><tr><td>1110707</td><td>argatroban 1 MG/ML</td><td/></tr><tr><td>1114195</td><td>rivaroxaban</td><td/></tr><tr><td>1114196</td><td>rivaroxaban 10 MG</td><td/></tr><tr><td>1114197</td><td>rivaroxaban Oral Tablet</td><td/></tr><tr><td>1114198</td><td>rivaroxaban 10 MG Oral Tablet</td><td/></tr><tr><td>1114199</td><td>Xarelto</td><td/></tr><tr><td>1114200</td><td>rivaroxaban 10 MG [Xarelto]</td><td/></tr><tr><td>1114201</td><td>rivaroxaban Oral Tablet [Xarelto]</td><td/></tr><tr><td>1114202</td><td>rivaroxaban 10 MG Oral Tablet [Xarelto]</td><td/></tr><tr><td>11289</td><td>warfarin</td><td/></tr><tr><td>114194</td><td>warfarin sodium</td><td/></tr><tr><td>114934</td><td>desirudin</td><td/></tr><tr><td>1151837</td><td>dalteparin Injectable Product</td><td/></tr><tr><td>1156646</td><td>dabigatran etexilate Oral Product</td><td/></tr><tr><td>1156647</td><td>dabigatran etexilate Pill</td><td/></tr><tr><td>1157753</td><td>desirudin Injectable Product</td><td/></tr><tr><td>1157968</td><td>rivaroxaban Oral Product</td><td/></tr><tr><td>1157969</td><td>rivaroxaban Pill</td><td/></tr><tr><td>1158258</td><td>argatroban Injectable Product</td><td/></tr><tr><td>1161790</td><td>warfarin Oral Product</td><td/></tr><tr><td>1161791</td><td>warfarin Pill</td><td/></tr><tr><td>1161844</td><td>bivalirudin Injectable Product</td><td/></tr><tr><td>1162099</td><td>tinzaparin Injectable Product</td><td/></tr><tr><td>1162664</td><td>enoxaparin Injectable Product</td><td/></tr><tr><td>1165637</td><td>fondaparinux Injectable Product</td><td/></tr><tr><td>1167808</td><td>Jantoven Oral Product</td><td/></tr><tr><td>1167809</td><td>Jantoven Pill</td><td/></tr><tr><td>1170763</td><td>Arixtra Injectable Product</td><td/></tr><tr><td>1171655</td><td>Coumadin Oral Product</td><td/></tr><tr><td>1171656</td><td>Coumadin Pill</td><td/></tr><tr><td>1173301</td><td>Fragmin Injectable Product</td><td/></tr><tr><td>1176229</td><td>Angiomax Injectable Product</td><td/></tr><tr><td>1176754</td><td>Iprivask Injectable Product</td><td/></tr><tr><td>1180930</td><td>Lovenox Injectable Product</td><td/></tr><tr><td>1184616</td><td>Pradaxa Oral Product</td><td/></tr><tr><td>1184617</td><td>Pradaxa Pill</td><td/></tr><tr><td>1186304</td><td>Xarelto Oral Product</td><td/></tr><tr><td>1232081</td><td>rivaroxaban 15 MG</td><td/></tr><tr><td>1232082</td><td>rivaroxaban 15 MG Oral Tablet</td><td/></tr><tr><td>1232083</td><td>rivaroxaban 15 MG [Xarelto]</td><td/></tr><tr><td>1232084</td><td>rivaroxaban 15 MG Oral Tablet [Xarelto]</td><td/></tr><tr><td>1232085</td><td>rivaroxaban 20 MG</td><td/></tr><tr><td>1232086</td><td>rivaroxaban 20 MG Oral Tablet</td><td/></tr><tr><td>1232087</td><td>rivaroxaban 20 MG [Xarelto]</td><td/></tr><tr><td>1232088</td><td>rivaroxaban 20 MG Oral Tablet [Xarelto]</td><td/></tr><tr><td>1361026</td><td>heparin sodium, porcine 10 UNT/ML</td><td/></tr><tr><td>1361029</td><td>heparin sodium, porcine 10 UNT/ML Injectable Solution</td><td/></tr><tr><td>1361047</td><td>heparin sodium, porcine 100 UNT/ML</td><td/></tr><tr><td>1361048</td><td>heparin sodium, porcine 100 UNT/ML Injectable Solution</td><td/></tr><tr><td>1361225</td><td>heparin sodium, porcine 1000 UNT/ML</td><td/></tr><tr><td>1361226</td><td>heparin sodium, porcine 1000 UNT/ML Injectable Solution</td><td/></tr><tr><td>1361567</td><td>heparin sodium, porcine 2000 UNT/ML</td><td/></tr><tr><td>1361568</td><td>5 ML heparin sodium, porcine 2000 UNT/ML Injection</td><td/></tr><tr><td>1361574</td><td>heparin sodium, porcine 20000 UNT/ML Injectable Solution</td><td/></tr><tr><td>1361576</td><td>heparin sodium, porcine 2500 UNT/ML</td><td/></tr><tr><td>1361577</td><td>10 ML heparin sodium, porcine 2500 UNT/ML Injection</td><td/></tr><tr><td>1361606</td><td>heparin sodium, porcine 40 UNT/ML</td><td/></tr><tr><td>1361607</td><td>500 ML heparin sodium, porcine 40 UNT/ML Injection</td><td/></tr><tr><td>1361612</td><td>heparin sodium, porcine 50 UNT/ML</td><td/></tr><tr><td>1361614</td><td>heparin sodium, porcine 5000 UNT/ML</td><td/></tr><tr><td>1361615</td><td>heparin sodium, porcine 5000 UNT/ML Injectable Solution</td><td/></tr><tr><td>1361852</td><td>heparin sodium, porcine 10000 UNT/ML</td><td/></tr><tr><td>1361853</td><td>0.5 ML heparin sodium, porcine 10000 UNT/ML Cartridge</td><td/></tr><tr><td>1362023</td><td>heparin sodium, porcine 1 UNT/ML</td><td/></tr><tr><td>1362060</td><td>2 ML heparin sodium, porcine 100 UNT/ML Prefilled Syringe</td><td/></tr><tr><td>1362062</td><td>3 ML heparin sodium, porcine 100 UNT/ML Prefilled Syringe</td><td/></tr><tr><td>1362064</td><td>heparin sodium, porcine 2 UNT/ML</td><td/></tr><tr><td>1362823</td><td>heparin sodium, porcine 8 UNT/ML</td><td/></tr><tr><td>1362831</td><td>heparin sodium, porcine 10000 UNT/ML Injectable Solution</td><td/></tr><tr><td>1364430</td><td>apixaban</td><td/></tr><tr><td>1364431</td><td>apixaban 2.5 MG</td><td/></tr><tr><td>1364432</td><td>apixaban Oral Product</td><td/></tr><tr><td>1364433</td><td>apixaban Pill</td><td/></tr><tr><td>1364434</td><td>apixaban Oral Tablet</td><td/></tr><tr><td>1364435</td><td>apixaban 2.5 MG Oral Tablet</td><td/></tr><tr><td>1364436</td><td>Eliquis</td><td/></tr><tr><td>1364437</td><td>apixaban 2.5 MG [Eliquis]</td><td/></tr><tr><td>1364439</td><td>Eliquis Oral Product</td><td/></tr><tr><td>1364440</td><td>Eliquis Pill</td><td/></tr><tr><td>1364441</td><td>apixaban 2.5 MG Oral Tablet [Eliquis]</td><td/></tr><tr><td>1364444</td><td>apixaban 5 MG</td><td/></tr><tr><td>1364445</td><td>apixaban 5 MG Oral Tablet</td><td/></tr><tr><td>1364446</td><td>apixaban 5 MG [Eliquis]</td><td/></tr><tr><td>1364447</td><td>apixaban 5 MG Oral Tablet [Eliquis]</td><td/></tr><tr><td>15202</td><td>argatroban</td><td/></tr><tr><td>1546207</td><td>argatroban anhydrous</td><td/></tr><tr><td>1546356</td><td>dabigatran</td><td/></tr><tr><td>1549682</td><td>{42 (rivaroxaban 15 MG Oral Tablet) / 9 (rivaroxaban 20 MG Oral Tablet) } Pack</td><td/></tr><tr><td>1549683</td><td>{42 (rivaroxaban 15 MG Oral Tablet [Xarelto]) / 9 (rivaroxaban 20 MG Oral Tablet [Xarelto]) } Pack [Xarelto Kit]</td><td/></tr><tr><td>1599538</td><td>edoxaban</td><td/></tr><tr><td>1599539</td><td>edoxaban 15 MG</td><td/></tr><tr><td>1599540</td><td>edoxaban Oral Product</td><td/></tr><tr><td>1599541</td><td>edoxaban Pill</td><td/></tr><tr><td>1599542</td><td>edoxaban Oral Tablet</td><td/></tr><tr><td>1599543</td><td>edoxaban 15 MG Oral Tablet</td><td/></tr><tr><td>1599545</td><td>edoxaban 15 MG [Savaysa]</td><td/></tr><tr><td>1599546</td><td>edoxaban Oral Tablet [Savaysa]</td><td/></tr><tr><td>1599549</td><td>edoxaban 15 MG Oral Tablet [Savaysa]</td><td/></tr><tr><td>1599550</td><td>edoxaban 30 MG</td><td/></tr><tr><td>1599551</td><td>edoxaban 30 MG Oral Tablet</td><td/></tr><tr><td>1599552</td><td>edoxaban 30 MG [Savaysa]</td><td/></tr><tr><td>1599553</td><td>edoxaban 30 MG Oral Tablet [Savaysa]</td><td/></tr><tr><td>1599554</td><td>edoxaban 60 MG</td><td/></tr><tr><td>1599555</td><td>edoxaban 60 MG Oral Tablet</td><td/></tr><tr><td>1599556</td><td>edoxaban 60 MG [Savaysa]</td><td/></tr><tr><td>1599557</td><td>edoxaban 60 MG Oral Tablet [Savaysa]</td><td/></tr><tr><td>1599564</td><td>edoxaban tosylate</td><td/></tr><tr><td>1657990</td><td>bivalirudin 250 MG</td><td/></tr><tr><td>1657991</td><td>bivalirudin Injection</td><td/></tr><tr><td>1657993</td><td>bivalirudin 250 MG [Angiomax]</td><td/></tr><tr><td>1657994</td><td>bivalirudin Injection [Angiomax]</td><td/></tr><tr><td>1658634</td><td>0.5 ML heparin sodium, porcine 10000 UNT/ML Injection</td><td/></tr><tr><td>1658637</td><td>1 ML heparin sodium, porcine 10000 UNT/ML Injection</td><td/></tr><tr><td>1658647</td><td>2 ML heparin sodium, porcine 1000 UNT/ML Injection</td><td/></tr><tr><td>1658659</td><td>1 ML heparin sodium, porcine 1000 UNT/ML Injection</td><td/></tr><tr><td>1658690</td><td>1000 ML heparin sodium, porcine 2 UNT/ML Injection</td><td/></tr><tr><td>1658692</td><td>500 ML heparin sodium, porcine 2 UNT/ML Injection</td><td/></tr><tr><td>1658717</td><td>250 ML heparin sodium, porcine 100 UNT/ML Injection</td><td/></tr><tr><td>1659195</td><td>500 ML heparin sodium, porcine 50 UNT/ML Injection</td><td/></tr><tr><td>1659197</td><td>250 ML heparin sodium, porcine 50 UNT/ML Injection</td><td/></tr><tr><td>1659260</td><td>1 ML heparin sodium, porcine 5000 UNT/ML Cartridge</td><td/></tr><tr><td>1659263</td><td>1 ML heparin sodium, porcine 5000 UNT/ML Injection</td><td/></tr><tr><td>1723475</td><td>dabigatran etexilate 110 MG</td><td/></tr><tr><td>1723476</td><td>dabigatran etexilate 110 MG Oral Capsule</td><td/></tr><tr><td>1723477</td><td>dabigatran etexilate 110 MG [Pradaxa]</td><td/></tr><tr><td>1723478</td><td>dabigatran etexilate 110 MG Oral Capsule [Pradaxa]</td><td/></tr><tr><td>1798389</td><td>1 ML heparin sodium, porcine 5000 UNT/ML Prefilled Syringe</td><td/></tr><tr><td>1804730</td><td>argatroban Injection</td><td/></tr><tr><td>1804735</td><td>50 ML argatroban 1 MG/ML Injection</td><td/></tr><tr><td>1804737</td><td>125 ML argatroban 1 MG/ML Injection</td><td/></tr><tr><td>1804738</td><td>250 ML argatroban 1 MG/ML Injection</td><td/></tr><tr><td>1807808</td><td>desirudin 15 MG</td><td/></tr><tr><td>1807809</td><td>desirudin Injection</td><td/></tr><tr><td>1807811</td><td>desirudin 15 MG [Iprivask]</td><td/></tr><tr><td>1807812</td><td>desirudin Injection [Iprivask]</td><td/></tr><tr><td>1856274</td><td>heparin Injectable Product</td><td/></tr><tr><td>1856275</td><td>heparin Injectable Solution</td><td/></tr><tr><td>1856278</td><td>heparin Prefilled Syringe</td><td/></tr><tr><td>1857598</td><td>heparin Injection</td><td/></tr><tr><td>1857949</td><td>heparin Cartridge</td><td/></tr><tr><td>1927851</td><td>betrixaban</td><td/></tr><tr><td>1927852</td><td>betrixaban 40 MG</td><td/></tr><tr><td>1927853</td><td>betrixaban Oral Product</td><td/></tr><tr><td>1927854</td><td>betrixaban Pill</td><td/></tr><tr><td>1927855</td><td>betrixaban Oral Capsule</td><td/></tr><tr><td>1927856</td><td>betrixaban 40 MG Oral Capsule</td><td/></tr><tr><td>1927857</td><td>Bevyxxa</td><td/></tr><tr><td>1927858</td><td>betrixaban 40 MG [Bevyxxa]</td><td/></tr><tr><td>1927859</td><td>betrixaban Oral Capsule [Bevyxxa]</td><td/></tr><tr><td>1927860</td><td>Bevyxxa Oral Product</td><td/></tr><tr><td>1927861</td><td>Bevyxxa Pill</td><td/></tr><tr><td>1927862</td><td>betrixaban 40 MG Oral Capsule [Bevyxxa]</td><td/></tr><tr><td>1927863</td><td>betrixaban 80 MG</td><td/></tr><tr><td>1927864</td><td>betrixaban 80 MG Oral Capsule</td><td/></tr><tr><td>1927865</td><td>betrixaban 80 MG [Bevyxxa]</td><td/></tr><tr><td>1927866</td><td>betrixaban 80 MG Oral Capsule [Bevyxxa]</td><td/></tr><tr><td>1992427</td><td>{74 (apixaban 5 MG Oral Tablet) } Pack</td><td/></tr><tr><td>1992428</td><td>{74 (apixaban 5 MG Oral Tablet [Eliquis]) } Pack [Eliquis 30-Day Starter Pack]</td><td/></tr><tr><td>1997014</td><td>bivalirudin 5 MG/ML</td><td/></tr><tr><td>1997015</td><td>50 ML bivalirudin 5 MG/ML Injection</td><td/></tr><tr><td>1997017</td><td>100 ML bivalirudin 5 MG/ML Injection</td><td/></tr><tr><td>20044</td><td>heparin calcium</td><td/></tr><tr><td>202421</td><td>Coumadin</td><td/></tr><tr><td>2059015</td><td>rivaroxaban 2.5 MG Oral Tablet</td><td/></tr><tr><td>2121591</td><td>0.5 ML heparin sodium, porcine 10000 UNT/ML Prefilled Syringe</td><td/></tr><tr><td>221095</td><td>enoxaparin sodium</td><td/></tr><tr><td>225036</td><td>Lovenox</td><td/></tr><tr><td>235473</td><td>heparin, porcine</td><td/></tr><tr><td>235995</td><td>tinzaparin sodium,porcine</td><td/></tr><tr><td>236025</td><td>heparin sodium, bovine</td><td/></tr><tr><td>237057</td><td>lepirudin</td><td/></tr><tr><td>281554</td><td>Fragmin</td><td/></tr><tr><td>284534</td><td>bivalirudin 250 MG Injection [Angiomax]</td><td/></tr><tr><td>285044</td><td>Angiomax</td><td/></tr><tr><td>308351</td><td>2.5 ML argatroban 100 MG/ML Injection</td><td/></tr><tr><td>308769</td><td>bivalirudin 250 MG Injection</td><td/></tr><tr><td>314659</td><td>heparin sodium, porcine</td><td/></tr><tr><td>321208</td><td>fondaparinux</td><td/></tr><tr><td>322154</td><td>fondaparinux sodium</td><td/></tr><tr><td>322155</td><td>Arixtra</td><td/></tr><tr><td>329284</td><td>argatroban 100 MG/ML</td><td/></tr><tr><td>362788</td><td>enoxaparin Injectable Solution [Lovenox]</td><td/></tr><tr><td>363135</td><td>dalteparin Injectable Solution [Fragmin]</td><td/></tr><tr><td>368417</td><td>warfarin Oral Tablet [Coumadin]</td><td/></tr><tr><td>371679</td><td>dalteparin Injectable Solution</td><td/></tr><tr><td>372012</td><td>enoxaparin Injectable Solution</td><td/></tr><tr><td>374319</td><td>warfarin Oral Tablet</td><td/></tr><tr><td>374638</td><td>tinzaparin Injectable Solution</td><td/></tr><tr><td>383613</td><td>Iprivask</td><td/></tr><tr><td>402248</td><td>desirudin 15 MG Injection</td><td/></tr><tr><td>402249</td><td>desirudin 15 MG Injection [Iprivask]</td><td/></tr><tr><td>405155</td><td>Jantoven</td><td/></tr><tr><td>406078</td><td>warfarin Oral Tablet [Jantoven]</td><td/></tr><tr><td>5224</td><td>heparin</td><td/></tr><tr><td>545075</td><td>fondaparinux sodium 12.5 MG/ML</td><td/></tr><tr><td>60819</td><td>bivalirudin</td><td/></tr><tr><td>67108</td><td>enoxaparin</td><td/></tr><tr><td>67109</td><td>dalteparin</td><td/></tr><tr><td>69646</td><td>tinzaparin</td><td/></tr><tr><td>727382</td><td>dalteparin Prefilled Syringe</td><td/></tr><tr><td>727559</td><td>fondaparinux Prefilled Syringe</td><td/></tr><tr><td>727561</td><td>fondaparinux Prefilled Syringe [Arixtra]</td><td/></tr><tr><td>727722</td><td>enoxaparin Prefilled Syringe</td><td/></tr><tr><td>753110</td><td>dalteparin Prefilled Syringe [Fragmin]</td><td/></tr><tr><td>759594</td><td>enoxaparin Prefilled Syringe [Lovenox]</td><td/></tr><tr><td>82137</td><td>dalteparin sodium</td><td/></tr><tr><td>849698</td><td>heparin calcium 25000 UNT/ML</td><td/></tr><tr><td>849760</td><td>heparin calcium 25000 UNT/ML Injectable Solution</td><td/></tr><tr><td>854227</td><td>enoxaparin sodium 100 MG/ML</td><td/></tr><tr><td>854228</td><td>0.3 ML enoxaparin sodium 100 MG/ML Prefilled Syringe</td><td/></tr><tr><td>854231</td><td>enoxaparin sodium 100 MG/ML [Lovenox]</td><td/></tr><tr><td>854232</td><td>0.3 ML enoxaparin sodium 100 MG/ML Prefilled Syringe [Lovenox]</td><td/></tr><tr><td>854235</td><td>0.4 ML enoxaparin sodium 100 MG/ML Prefilled Syringe</td><td/></tr><tr><td>854236</td><td>0.4 ML enoxaparin sodium 100 MG/ML Prefilled Syringe [Lovenox]</td><td/></tr><tr><td>854238</td><td>0.6 ML enoxaparin sodium 100 MG/ML Prefilled Syringe</td><td/></tr><tr><td>854239</td><td>0.6 ML enoxaparin sodium 100 MG/ML Prefilled Syringe [Lovenox]</td><td/></tr><tr><td>854241</td><td>0.8 ML enoxaparin sodium 100 MG/ML Prefilled Syringe</td><td/></tr><tr><td>854242</td><td>0.8 ML enoxaparin sodium 100 MG/ML Prefilled Syringe [Lovenox]</td><td/></tr><tr><td>854244</td><td>enoxaparin sodium 150 MG/ML</td><td/></tr><tr><td>854245</td><td>0.8 ML enoxaparin sodium 150 MG/ML Prefilled Syringe</td><td/></tr><tr><td>854246</td><td>enoxaparin sodium 150 MG/ML [Lovenox]</td><td/></tr><tr><td>854247</td><td>0.8 ML enoxaparin sodium 150 MG/ML Prefilled Syringe [Lovenox]</td><td/></tr><tr><td>854248</td><td>1 ML enoxaparin sodium 100 MG/ML Prefilled Syringe</td><td/></tr><tr><td>854249</td><td>1 ML enoxaparin sodium 100 MG/ML Prefilled Syringe [Lovenox]</td><td/></tr><tr><td>854252</td><td>1 ML enoxaparin sodium 150 MG/ML Prefilled Syringe</td><td/></tr><tr><td>854253</td><td>1 ML enoxaparin sodium 150 MG/ML Prefilled Syringe [Lovenox]</td><td/></tr><tr><td>854255</td><td>enoxaparin sodium 100 MG/ML Injectable Solution</td><td/></tr><tr><td>854256</td><td>enoxaparin sodium 100 MG/ML Injectable Solution [Lovenox]</td><td/></tr><tr><td>855287</td><td>warfarin sodium 1 MG</td><td/></tr><tr><td>855288</td><td>warfarin sodium 1 MG Oral Tablet</td><td/></tr><tr><td>855289</td><td>warfarin sodium 1 MG [Coumadin]</td><td/></tr><tr><td>855290</td><td>warfarin sodium 1 MG Oral Tablet [Coumadin]</td><td/></tr><tr><td>855291</td><td>warfarin sodium 1 MG [Jantoven]</td><td/></tr><tr><td>855292</td><td>warfarin sodium 1 MG Oral Tablet [Jantoven]</td><td/></tr><tr><td>855295</td><td>warfarin sodium 10 MG</td><td/></tr><tr><td>855296</td><td>warfarin sodium 10 MG Oral Tablet</td><td/></tr><tr><td>855297</td><td>warfarin sodium 10 MG [Coumadin]</td><td/></tr><tr><td>855298</td><td>warfarin sodium 10 MG Oral Tablet [Coumadin]</td><td/></tr><tr><td>855299</td><td>warfarin sodium 10 MG [Jantoven]</td><td/></tr><tr><td>855300</td><td>warfarin sodium 10 MG Oral Tablet [Jantoven]</td><td/></tr><tr><td>855301</td><td>warfarin sodium 2 MG</td><td/></tr><tr><td>855302</td><td>warfarin sodium 2 MG Oral Tablet</td><td/></tr><tr><td>855303</td><td>warfarin sodium 2 MG [Coumadin]</td><td/></tr><tr><td>855304</td><td>warfarin sodium 2 MG Oral Tablet [Coumadin]</td><td/></tr><tr><td>855305</td><td>warfarin sodium 2 MG [Jantoven]</td><td/></tr><tr><td>855306</td><td>warfarin sodium 2 MG Oral Tablet [Jantoven]</td><td/></tr><tr><td>855311</td><td>warfarin sodium 2.5 MG</td><td/></tr><tr><td>855312</td><td>warfarin sodium 2.5 MG Oral Tablet</td><td/></tr><tr><td>855313</td><td>warfarin sodium 2.5 MG [Coumadin]</td><td/></tr><tr><td>855314</td><td>warfarin sodium 2.5 MG Oral Tablet [Coumadin]</td><td/></tr><tr><td>855315</td><td>warfarin sodium 2.5 MG [Jantoven]</td><td/></tr><tr><td>855317</td><td>warfarin sodium 3 MG</td><td/></tr><tr><td>855318</td><td>warfarin sodium 3 MG Oral Tablet</td><td/></tr><tr><td>855319</td><td>warfarin sodium 3 MG [Coumadin]</td><td/></tr><tr><td>855320</td><td>warfarin sodium 3 MG Oral Tablet [Coumadin]</td><td/></tr><tr><td>855321</td><td>warfarin sodium 3 MG [Jantoven]</td><td/></tr><tr><td>855322</td><td>warfarin sodium 3 MG Oral Tablet [Jantoven]</td><td/></tr><tr><td>855323</td><td>warfarin sodium 4 MG</td><td/></tr><tr><td>855324</td><td>warfarin sodium 4 MG Oral Tablet</td><td/></tr><tr><td>855325</td><td>warfarin sodium 4 MG [Coumadin]</td><td/></tr><tr><td>855326</td><td>warfarin sodium 4 MG Oral Tablet [Coumadin]</td><td/></tr><tr><td>855327</td><td>warfarin sodium 4 MG [Jantoven]</td><td/></tr><tr><td>855328</td><td>warfarin sodium 4 MG Oral Tablet [Jantoven]</td><td/></tr><tr><td>855331</td><td>warfarin sodium 5 MG</td><td/></tr><tr><td>855332</td><td>warfarin sodium 5 MG Oral Tablet</td><td/></tr><tr><td>855333</td><td>warfarin sodium 5 MG [Coumadin]</td><td/></tr><tr><td>855334</td><td>warfarin sodium 5 MG Oral Tablet [Coumadin]</td><td/></tr><tr><td>855335</td><td>warfarin sodium 5 MG [Jantoven]</td><td/></tr><tr><td>855336</td><td>warfarin sodium 5 MG Oral Tablet [Jantoven]</td><td/></tr><tr><td>855337</td><td>warfarin sodium 6 MG</td><td/></tr><tr><td>855338</td><td>warfarin sodium 6 MG Oral Tablet</td><td/></tr><tr><td>855339</td><td>warfarin sodium 6 MG [Coumadin]</td><td/></tr><tr><td>855340</td><td>warfarin sodium 6 MG Oral Tablet [Coumadin]</td><td/></tr><tr><td>855341</td><td>warfarin sodium 6 MG [Jantoven]</td><td/></tr><tr><td>855342</td><td>warfarin sodium 6 MG Oral Tablet [Jantoven]</td><td/></tr><tr><td>855343</td><td>warfarin sodium 7.5 MG</td><td/></tr><tr><td>855344</td><td>warfarin sodium 7.5 MG Oral Tablet</td><td/></tr><tr><td>855345</td><td>warfarin sodium 7.5 MG [Coumadin]</td><td/></tr><tr><td>855346</td><td>warfarin sodium 7.5 MG Oral Tablet [Coumadin]</td><td/></tr><tr><td>855347</td><td>warfarin sodium 7.5 MG [Jantoven]</td><td/></tr><tr><td>855348</td><td>warfarin sodium 7.5 MG Oral Tablet [Jantoven]</td><td/></tr><tr><td>861356</td><td>0.8 ML fondaparinux sodium 12.5 MG/ML Prefilled Syringe</td><td/></tr><tr><td>861357</td><td>fondaparinux sodium 12.5 MG/ML [Arixtra]</td><td/></tr><tr><td>861358</td><td>0.8 ML fondaparinux sodium 12.5 MG/ML Prefilled Syringe [Arixtra]</td><td/></tr><tr><td>861359</td><td>fondaparinux sodium 5 MG/ML</td><td/></tr><tr><td>861360</td><td>0.5 ML fondaparinux sodium 5 MG/ML Prefilled Syringe</td><td/></tr><tr><td>861361</td><td>fondaparinux sodium 5 MG/ML [Arixtra]</td><td/></tr><tr><td>861362</td><td>0.5 ML fondaparinux sodium 5 MG/ML Prefilled Syringe [Arixtra]</td><td/></tr><tr><td>861363</td><td>0.4 ML fondaparinux sodium 12.5 MG/ML Prefilled Syringe</td><td/></tr><tr><td>861364</td><td>0.4 ML fondaparinux sodium 12.5 MG/ML Prefilled Syringe [Arixtra]</td><td/></tr><tr><td>861365</td><td>0.6 ML fondaparinux sodium 12.5 MG/ML Prefilled Syringe</td><td/></tr><tr><td>861366</td><td>0.6 ML fondaparinux sodium 12.5 MG/ML Prefilled Syringe [Arixtra]</td><td/></tr><tr><td>978712</td><td>tinzaparin sodium 20000 UNT/ML</td><td/></tr><tr><td>978713</td><td>tinzaparin sodium 20000 UNT/ML Injectable Solution</td><td/></tr><tr><td>978716</td><td>tinzaparin sodium 10000 UNT/ML</td><td/></tr><tr><td>978717</td><td>tinzaparin sodium 10000 UNT/ML Injectable Solution</td><td/></tr><tr><td>978724</td><td>dalteparin sodium 12500 UNT/ML</td><td/></tr><tr><td>978725</td><td>0.2 ML dalteparin sodium 12500 UNT/ML Prefilled Syringe</td><td/></tr><tr><td>978726</td><td>dalteparin sodium 12500 UNT/ML [Fragmin]</td><td/></tr><tr><td>978727</td><td>0.2 ML dalteparin sodium 12500 UNT/ML Prefilled Syringe [Fragmin]</td><td/></tr><tr><td>978732</td><td>dalteparin sodium 25000 UNT/ML</td><td/></tr><tr><td>978733</td><td>0.2 ML dalteparin sodium 25000 UNT/ML Prefilled Syringe</td><td/></tr><tr><td>978734</td><td>dalteparin sodium 25000 UNT/ML [Fragmin]</td><td/></tr><tr><td>978735</td><td>0.2 ML dalteparin sodium 25000 UNT/ML Prefilled Syringe [Fragmin]</td><td/></tr><tr><td>978736</td><td>0.3 ML dalteparin sodium 25000 UNT/ML Prefilled Syringe</td><td/></tr><tr><td>978737</td><td>0.3 ML dalteparin sodium 25000 UNT/ML Prefilled Syringe [Fragmin]</td><td/></tr><tr><td>978740</td><td>0.5 ML dalteparin sodium 25000 UNT/ML Prefilled Syringe</td><td/></tr><tr><td>978741</td><td>0.5 ML dalteparin sodium 25000 UNT/ML Prefilled Syringe [Fragmin]</td><td/></tr><tr><td>978744</td><td>0.6 ML dalteparin sodium 25000 UNT/ML Prefilled Syringe</td><td/></tr><tr><td>978745</td><td>0.6 ML dalteparin sodium 25000 UNT/ML Prefilled Syringe [Fragmin]</td><td/></tr><tr><td>978746</td><td>0.72 ML dalteparin sodium 25000 UNT/ML Prefilled Syringe</td><td/></tr><tr><td>978747</td><td>0.72 ML dalteparin sodium 25000 UNT/ML Prefilled Syringe [Fragmin]</td><td/></tr><tr><td>978754</td><td>dalteparin sodium 10000 UNT/ML</td><td/></tr><tr><td>978755</td><td>1 ML dalteparin sodium 10000 UNT/ML Prefilled Syringe</td><td/></tr><tr><td>978756</td><td>dalteparin sodium 10000 UNT/ML [Fragmin]</td><td/></tr><tr><td>978757</td><td>1 ML dalteparin sodium 10000 UNT/ML Prefilled Syringe [Fragmin]</td><td/></tr><tr><td>978759</td><td>dalteparin sodium 10000 UNT/ML Injectable Solution</td><td/></tr><tr><td>978773</td><td>dalteparin sodium 2500 UNT/ML</td><td/></tr><tr><td>978774</td><td>dalteparin sodium 2500 UNT/ML Injectable Solution</td><td/></tr><tr><td>978777</td><td>dalteparin sodium 25000 UNT/ML Injectable Solution</td><td/></tr><tr><td>978778</td><td>dalteparin sodium 25000 UNT/ML Injectable Solution [Fragmin]</td><td/></tr><tr><td>9877</td><td>heparin sodium</td><td/></tr></table></li></ul></div>"
        },
        "url": "http://cts.nlm.nih.gov/fhir/ValueSet/2.16.840.1.113883.17.4077.2.1012",
        "version": "20200909",
        "name": "Anticoagulant",
        "status": "active",
        "date": "2020-09-09T01:00:32-04:00",
        "publisher": "ACEP/AMA-PCPI Steward",
        "compose": {
          "include": [
            {
              "system": "http://www.nlm.nih.gov/research/umls/rxnorm",
              "concept": [
                {
                  "code": "1008696",
                  "display": "dalteparin / dihydroergotamine"
                },
                {
                  "code": "1037041",
                  "display": "dabigatran etexilate mesylate"
                },
                {
                  "code": "1037042",
                  "display": "dabigatran etexilate"
                },
                {
                  "code": "1037043",
                  "display": "dabigatran etexilate 150 MG"
                },
                {
                  "code": "1037044",
                  "display": "dabigatran etexilate Oral Capsule"
                },
                {
                  "code": "1037045",
                  "display": "dabigatran etexilate 150 MG Oral Capsule"
                },
                {
                  "code": "1037046",
                  "display": "Pradaxa"
                },
                {
                  "code": "1037047",
                  "display": "dabigatran etexilate 150 MG [Pradaxa]"
                },
                {
                  "code": "1037048",
                  "display": "dabigatran etexilate Oral Capsule [Pradaxa]"
                },
                {
                  "code": "1037049",
                  "display": "dabigatran etexilate 150 MG Oral Capsule [Pradaxa]"
                },
                {
                  "code": "1037178",
                  "display": "dabigatran etexilate 75 MG"
                },
                {
                  "code": "1037179",
                  "display": "dabigatran etexilate 75 MG Oral Capsule"
                },
                {
                  "code": "1037180",
                  "display": "dabigatran etexilate 75 MG [Pradaxa]"
                },
                {
                  "code": "1037181",
                  "display": "dabigatran etexilate 75 MG Oral Capsule [Pradaxa]"
                },
                {
                  "code": "104466",
                  "display": "tinzaparin sodium"
                },
                {
                  "code": "1110707",
                  "display": "argatroban 1 MG/ML"
                },
                {
                  "code": "1114195",
                  "display": "rivaroxaban"
                },
                {
                  "code": "1114196",
                  "display": "rivaroxaban 10 MG"
                },
                {
                  "code": "1114197",
                  "display": "rivaroxaban Oral Tablet"
                },
                {
                  "code": "1114198",
                  "display": "rivaroxaban 10 MG Oral Tablet"
                },
                {
                  "code": "1114199",
                  "display": "Xarelto"
                },
                {
                  "code": "1114200",
                  "display": "rivaroxaban 10 MG [Xarelto]"
                },
                {
                  "code": "1114201",
                  "display": "rivaroxaban Oral Tablet [Xarelto]"
                },
                {
                  "code": "1114202",
                  "display": "rivaroxaban 10 MG Oral Tablet [Xarelto]"
                },
                {
                  "code": "11289",
                  "display": "warfarin"
                },
                {
                  "code": "114194",
                  "display": "warfarin sodium"
                },
                {
                  "code": "114934",
                  "display": "desirudin"
                },
                {
                  "code": "1151837",
                  "display": "dalteparin Injectable Product"
                },
                {
                  "code": "1156646",
                  "display": "dabigatran etexilate Oral Product"
                },
                {
                  "code": "1156647",
                  "display": "dabigatran etexilate Pill"
                },
                {
                  "code": "1157753",
                  "display": "desirudin Injectable Product"
                },
                {
                  "code": "1157968",
                  "display": "rivaroxaban Oral Product"
                },
                {
                  "code": "1157969",
                  "display": "rivaroxaban Pill"
                },
                {
                  "code": "1158258",
                  "display": "argatroban Injectable Product"
                },
                {
                  "code": "1161790",
                  "display": "warfarin Oral Product"
                },
                {
                  "code": "1161791",
                  "display": "warfarin Pill"
                },
                {
                  "code": "1161844",
                  "display": "bivalirudin Injectable Product"
                },
                {
                  "code": "1162099",
                  "display": "tinzaparin Injectable Product"
                },
                {
                  "code": "1162664",
                  "display": "enoxaparin Injectable Product"
                },
                {
                  "code": "1165637",
                  "display": "fondaparinux Injectable Product"
                },
                {
                  "code": "1167808",
                  "display": "Jantoven Oral Product"
                },
                {
                  "code": "1167809",
                  "display": "Jantoven Pill"
                },
                {
                  "code": "1170763",
                  "display": "Arixtra Injectable Product"
                },
                {
                  "code": "1171655",
                  "display": "Coumadin Oral Product"
                },
                {
                  "code": "1171656",
                  "display": "Coumadin Pill"
                },
                {
                  "code": "1173301",
                  "display": "Fragmin Injectable Product"
                },
                {
                  "code": "1176229",
                  "display": "Angiomax Injectable Product"
                },
                {
                  "code": "1176754",
                  "display": "Iprivask Injectable Product"
                },
                {
                  "code": "1180930",
                  "display": "Lovenox Injectable Product"
                },
                {
                  "code": "1184616",
                  "display": "Pradaxa Oral Product"
                },
                {
                  "code": "1184617",
                  "display": "Pradaxa Pill"
                },
                {
                  "code": "1186304",
                  "display": "Xarelto Oral Product"
                },
                {
                  "code": "1232081",
                  "display": "rivaroxaban 15 MG"
                },
                {
                  "code": "1232082",
                  "display": "rivaroxaban 15 MG Oral Tablet"
                },
                {
                  "code": "1232083",
                  "display": "rivaroxaban 15 MG [Xarelto]"
                },
                {
                  "code": "1232084",
                  "display": "rivaroxaban 15 MG Oral Tablet [Xarelto]"
                },
                {
                  "code": "1232085",
                  "display": "rivaroxaban 20 MG"
                },
                {
                  "code": "1232086",
                  "display": "rivaroxaban 20 MG Oral Tablet"
                },
                {
                  "code": "1232087",
                  "display": "rivaroxaban 20 MG [Xarelto]"
                },
                {
                  "code": "1232088",
                  "display": "rivaroxaban 20 MG Oral Tablet [Xarelto]"
                },
                {
                  "code": "1361026",
                  "display": "heparin sodium, porcine 10 UNT/ML"
                },
                {
                  "code": "1361029",
                  "display": "heparin sodium, porcine 10 UNT/ML Injectable Solution"
                },
                {
                  "code": "1361047",
                  "display": "heparin sodium, porcine 100 UNT/ML"
                },
                {
                  "code": "1361048",
                  "display": "heparin sodium, porcine 100 UNT/ML Injectable Solution"
                },
                {
                  "code": "1361225",
                  "display": "heparin sodium, porcine 1000 UNT/ML"
                },
                {
                  "code": "1361226",
                  "display": "heparin sodium, porcine 1000 UNT/ML Injectable Solution"
                },
                {
                  "code": "1361567",
                  "display": "heparin sodium, porcine 2000 UNT/ML"
                },
                {
                  "code": "1361568",
                  "display": "5 ML heparin sodium, porcine 2000 UNT/ML Injection"
                },
                {
                  "code": "1361574",
                  "display": "heparin sodium, porcine 20000 UNT/ML Injectable Solution"
                },
                {
                  "code": "1361576",
                  "display": "heparin sodium, porcine 2500 UNT/ML"
                },
                {
                  "code": "1361577",
                  "display": "10 ML heparin sodium, porcine 2500 UNT/ML Injection"
                },
                {
                  "code": "1361606",
                  "display": "heparin sodium, porcine 40 UNT/ML"
                },
                {
                  "code": "1361607",
                  "display": "500 ML heparin sodium, porcine 40 UNT/ML Injection"
                },
                {
                  "code": "1361612",
                  "display": "heparin sodium, porcine 50 UNT/ML"
                },
                {
                  "code": "1361614",
                  "display": "heparin sodium, porcine 5000 UNT/ML"
                },
                {
                  "code": "1361615",
                  "display": "heparin sodium, porcine 5000 UNT/ML Injectable Solution"
                },
                {
                  "code": "1361852",
                  "display": "heparin sodium, porcine 10000 UNT/ML"
                },
                {
                  "code": "1361853",
                  "display": "0.5 ML heparin sodium, porcine 10000 UNT/ML Cartridge"
                },
                {
                  "code": "1362023",
                  "display": "heparin sodium, porcine 1 UNT/ML"
                },
                {
                  "code": "1362060",
                  "display": "2 ML heparin sodium, porcine 100 UNT/ML Prefilled Syringe"
                },
                {
                  "code": "1362062",
                  "display": "3 ML heparin sodium, porcine 100 UNT/ML Prefilled Syringe"
                },
                {
                  "code": "1362064",
                  "display": "heparin sodium, porcine 2 UNT/ML"
                },
                {
                  "code": "1362823",
                  "display": "heparin sodium, porcine 8 UNT/ML"
                },
                {
                  "code": "1362831",
                  "display": "heparin sodium, porcine 10000 UNT/ML Injectable Solution"
                },
                {
                  "code": "1364430",
                  "display": "apixaban"
                },
                {
                  "code": "1364431",
                  "display": "apixaban 2.5 MG"
                },
                {
                  "code": "1364432",
                  "display": "apixaban Oral Product"
                },
                {
                  "code": "1364433",
                  "display": "apixaban Pill"
                },
                {
                  "code": "1364434",
                  "display": "apixaban Oral Tablet"
                },
                {
                  "code": "1364435",
                  "display": "apixaban 2.5 MG Oral Tablet"
                },
                {
                  "code": "1364436",
                  "display": "Eliquis"
                },
                {
                  "code": "1364437",
                  "display": "apixaban 2.5 MG [Eliquis]"
                },
                {
                  "code": "1364439",
                  "display": "Eliquis Oral Product"
                },
                {
                  "code": "1364440",
                  "display": "Eliquis Pill"
                },
                {
                  "code": "1364441",
                  "display": "apixaban 2.5 MG Oral Tablet [Eliquis]"
                },
                {
                  "code": "1364444",
                  "display": "apixaban 5 MG"
                },
                {
                  "code": "1364445",
                  "display": "apixaban 5 MG Oral Tablet"
                },
                {
                  "code": "1364446",
                  "display": "apixaban 5 MG [Eliquis]"
                },
                {
                  "code": "1364447",
                  "display": "apixaban 5 MG Oral Tablet [Eliquis]"
                },
                {
                  "code": "15202",
                  "display": "argatroban"
                },
                {
                  "code": "1546207",
                  "display": "argatroban anhydrous"
                },
                {
                  "code": "1546356",
                  "display": "dabigatran"
                },
                {
                  "code": "1549682",
                  "display": "{42 (rivaroxaban 15 MG Oral Tablet) / 9 (rivaroxaban 20 MG Oral Tablet) } Pack"
                },
                {
                  "code": "1549683",
                  "display": "{42 (rivaroxaban 15 MG Oral Tablet [Xarelto]) / 9 (rivaroxaban 20 MG Oral Tablet [Xarelto]) } Pack [Xarelto Kit]"
                },
                {
                  "code": "1599538",
                  "display": "edoxaban"
                },
                {
                  "code": "1599539",
                  "display": "edoxaban 15 MG"
                },
                {
                  "code": "1599540",
                  "display": "edoxaban Oral Product"
                },
                {
                  "code": "1599541",
                  "display": "edoxaban Pill"
                },
                {
                  "code": "1599542",
                  "display": "edoxaban Oral Tablet"
                },
                {
                  "code": "1599543",
                  "display": "edoxaban 15 MG Oral Tablet"
                },
                {
                  "code": "1599545",
                  "display": "edoxaban 15 MG [Savaysa]"
                },
                {
                  "code": "1599546",
                  "display": "edoxaban Oral Tablet [Savaysa]"
                },
                {
                  "code": "1599549",
                  "display": "edoxaban 15 MG Oral Tablet [Savaysa]"
                },
                {
                  "code": "1599550",
                  "display": "edoxaban 30 MG"
                },
                {
                  "code": "1599551",
                  "display": "edoxaban 30 MG Oral Tablet"
                },
                {
                  "code": "1599552",
                  "display": "edoxaban 30 MG [Savaysa]"
                },
                {
                  "code": "1599553",
                  "display": "edoxaban 30 MG Oral Tablet [Savaysa]"
                },
                {
                  "code": "1599554",
                  "display": "edoxaban 60 MG"
                },
                {
                  "code": "1599555",
                  "display": "edoxaban 60 MG Oral Tablet"
                },
                {
                  "code": "1599556",
                  "display": "edoxaban 60 MG [Savaysa]"
                },
                {
                  "code": "1599557",
                  "display": "edoxaban 60 MG Oral Tablet [Savaysa]"
                },
                {
                  "code": "1599564",
                  "display": "edoxaban tosylate"
                },
                {
                  "code": "1657990",
                  "display": "bivalirudin 250 MG"
                },
                {
                  "code": "1657991",
                  "display": "bivalirudin Injection"
                },
                {
                  "code": "1657993",
                  "display": "bivalirudin 250 MG [Angiomax]"
                },
                {
                  "code": "1657994",
                  "display": "bivalirudin Injection [Angiomax]"
                },
                {
                  "code": "1658634",
                  "display": "0.5 ML heparin sodium, porcine 10000 UNT/ML Injection"
                },
                {
                  "code": "1658637",
                  "display": "1 ML heparin sodium, porcine 10000 UNT/ML Injection"
                },
                {
                  "code": "1658647",
                  "display": "2 ML heparin sodium, porcine 1000 UNT/ML Injection"
                },
                {
                  "code": "1658659",
                  "display": "1 ML heparin sodium, porcine 1000 UNT/ML Injection"
                },
                {
                  "code": "1658690",
                  "display": "1000 ML heparin sodium, porcine 2 UNT/ML Injection"
                },
                {
                  "code": "1658692",
                  "display": "500 ML heparin sodium, porcine 2 UNT/ML Injection"
                },
                {
                  "code": "1658717",
                  "display": "250 ML heparin sodium, porcine 100 UNT/ML Injection"
                },
                {
                  "code": "1659195",
                  "display": "500 ML heparin sodium, porcine 50 UNT/ML Injection"
                },
                {
                  "code": "1659197",
                  "display": "250 ML heparin sodium, porcine 50 UNT/ML Injection"
                },
                {
                  "code": "1659260",
                  "display": "1 ML heparin sodium, porcine 5000 UNT/ML Cartridge"
                },
                {
                  "code": "1659263",
                  "display": "1 ML heparin sodium, porcine 5000 UNT/ML Injection"
                },
                {
                  "code": "1723475",
                  "display": "dabigatran etexilate 110 MG"
                },
                {
                  "code": "1723476",
                  "display": "dabigatran etexilate 110 MG Oral Capsule"
                },
                {
                  "code": "1723477",
                  "display": "dabigatran etexilate 110 MG [Pradaxa]"
                },
                {
                  "code": "1723478",
                  "display": "dabigatran etexilate 110 MG Oral Capsule [Pradaxa]"
                },
                {
                  "code": "1798389",
                  "display": "1 ML heparin sodium, porcine 5000 UNT/ML Prefilled Syringe"
                },
                {
                  "code": "1804730",
                  "display": "argatroban Injection"
                },
                {
                  "code": "1804735",
                  "display": "50 ML argatroban 1 MG/ML Injection"
                },
                {
                  "code": "1804737",
                  "display": "125 ML argatroban 1 MG/ML Injection"
                },
                {
                  "code": "1804738",
                  "display": "250 ML argatroban 1 MG/ML Injection"
                },
                {
                  "code": "1807808",
                  "display": "desirudin 15 MG"
                },
                {
                  "code": "1807809",
                  "display": "desirudin Injection"
                },
                {
                  "code": "1807811",
                  "display": "desirudin 15 MG [Iprivask]"
                },
                {
                  "code": "1807812",
                  "display": "desirudin Injection [Iprivask]"
                },
                {
                  "code": "1856274",
                  "display": "heparin Injectable Product"
                },
                {
                  "code": "1856275",
                  "display": "heparin Injectable Solution"
                },
                {
                  "code": "1856278",
                  "display": "heparin Prefilled Syringe"
                },
                {
                  "code": "1857598",
                  "display": "heparin Injection"
                },
                {
                  "code": "1857949",
                  "display": "heparin Cartridge"
                },
                {
                  "code": "1927851",
                  "display": "betrixaban"
                },
                {
                  "code": "1927852",
                  "display": "betrixaban 40 MG"
                },
                {
                  "code": "1927853",
                  "display": "betrixaban Oral Product"
                },
                {
                  "code": "1927854",
                  "display": "betrixaban Pill"
                },
                {
                  "code": "1927855",
                  "display": "betrixaban Oral Capsule"
                },
                {
                  "code": "1927856",
                  "display": "betrixaban 40 MG Oral Capsule"
                },
                {
                  "code": "1927857",
                  "display": "Bevyxxa"
                },
                {
                  "code": "1927858",
                  "display": "betrixaban 40 MG [Bevyxxa]"
                },
                {
                  "code": "1927859",
                  "display": "betrixaban Oral Capsule [Bevyxxa]"
                },
                {
                  "code": "1927860",
                  "display": "Bevyxxa Oral Product"
                },
                {
                  "code": "1927861",
                  "display": "Bevyxxa Pill"
                },
                {
                  "code": "1927862",
                  "display": "betrixaban 40 MG Oral Capsule [Bevyxxa]"
                },
                {
                  "code": "1927863",
                  "display": "betrixaban 80 MG"
                },
                {
                  "code": "1927864",
                  "display": "betrixaban 80 MG Oral Capsule"
                },
                {
                  "code": "1927865",
                  "display": "betrixaban 80 MG [Bevyxxa]"
                },
                {
                  "code": "1927866",
                  "display": "betrixaban 80 MG Oral Capsule [Bevyxxa]"
                },
                {
                  "code": "1992427",
                  "display": "{74 (apixaban 5 MG Oral Tablet) } Pack"
                },
                {
                  "code": "1992428",
                  "display": "{74 (apixaban 5 MG Oral Tablet [Eliquis]) } Pack [Eliquis 30-Day Starter Pack]"
                },
                {
                  "code": "1997014",
                  "display": "bivalirudin 5 MG/ML"
                },
                {
                  "code": "1997015",
                  "display": "50 ML bivalirudin 5 MG/ML Injection"
                },
                {
                  "code": "1997017",
                  "display": "100 ML bivalirudin 5 MG/ML Injection"
                },
                {
                  "code": "20044",
                  "display": "heparin calcium"
                },
                {
                  "code": "202421",
                  "display": "Coumadin"
                },
                {
                  "code": "2059015",
                  "display": "rivaroxaban 2.5 MG Oral Tablet"
                },
                {
                  "code": "2121591",
                  "display": "0.5 ML heparin sodium, porcine 10000 UNT/ML Prefilled Syringe"
                },
                {
                  "code": "221095",
                  "display": "enoxaparin sodium"
                },
                {
                  "code": "225036",
                  "display": "Lovenox"
                },
                {
                  "code": "235473",
                  "display": "heparin, porcine"
                },
                {
                  "code": "235995",
                  "display": "tinzaparin sodium,porcine"
                },
                {
                  "code": "236025",
                  "display": "heparin sodium, bovine"
                },
                {
                  "code": "237057",
                  "display": "lepirudin"
                },
                {
                  "code": "281554",
                  "display": "Fragmin"
                },
                {
                  "code": "284534",
                  "display": "bivalirudin 250 MG Injection [Angiomax]"
                },
                {
                  "code": "285044",
                  "display": "Angiomax"
                },
                {
                  "code": "308351",
                  "display": "2.5 ML argatroban 100 MG/ML Injection"
                },
                {
                  "code": "308769",
                  "display": "bivalirudin 250 MG Injection"
                },
                {
                  "code": "314659",
                  "display": "heparin sodium, porcine"
                },
                {
                  "code": "321208",
                  "display": "fondaparinux"
                },
                {
                  "code": "322154",
                  "display": "fondaparinux sodium"
                },
                {
                  "code": "322155",
                  "display": "Arixtra"
                },
                {
                  "code": "329284",
                  "display": "argatroban 100 MG/ML"
                },
                {
                  "code": "362788",
                  "display": "enoxaparin Injectable Solution [Lovenox]"
                },
                {
                  "code": "363135",
                  "display": "dalteparin Injectable Solution [Fragmin]"
                },
                {
                  "code": "368417",
                  "display": "warfarin Oral Tablet [Coumadin]"
                },
                {
                  "code": "371679",
                  "display": "dalteparin Injectable Solution"
                },
                {
                  "code": "372012",
                  "display": "enoxaparin Injectable Solution"
                },
                {
                  "code": "374319",
                  "display": "warfarin Oral Tablet"
                },
                {
                  "code": "374638",
                  "display": "tinzaparin Injectable Solution"
                },
                {
                  "code": "383613",
                  "display": "Iprivask"
                },
                {
                  "code": "402248",
                  "display": "desirudin 15 MG Injection"
                },
                {
                  "code": "402249",
                  "display": "desirudin 15 MG Injection [Iprivask]"
                },
                {
                  "code": "405155",
                  "display": "Jantoven"
                },
                {
                  "code": "406078",
                  "display": "warfarin Oral Tablet [Jantoven]"
                },
                {
                  "code": "5224",
                  "display": "heparin"
                },
                {
                  "code": "545075",
                  "display": "fondaparinux sodium 12.5 MG/ML"
                },
                {
                  "code": "60819",
                  "display": "bivalirudin"
                },
                {
                  "code": "67108",
                  "display": "enoxaparin"
                },
                {
                  "code": "67109",
                  "display": "dalteparin"
                },
                {
                  "code": "69646",
                  "display": "tinzaparin"
                },
                {
                  "code": "727382",
                  "display": "dalteparin Prefilled Syringe"
                },
                {
                  "code": "727559",
                  "display": "fondaparinux Prefilled Syringe"
                },
                {
                  "code": "727561",
                  "display": "fondaparinux Prefilled Syringe [Arixtra]"
                },
                {
                  "code": "727722",
                  "display": "enoxaparin Prefilled Syringe"
                },
                {
                  "code": "753110",
                  "display": "dalteparin Prefilled Syringe [Fragmin]"
                },
                {
                  "code": "759594",
                  "display": "enoxaparin Prefilled Syringe [Lovenox]"
                },
                {
                  "code": "82137",
                  "display": "dalteparin sodium"
                },
                {
                  "code": "849698",
                  "display": "heparin calcium 25000 UNT/ML"
                },
                {
                  "code": "849760",
                  "display": "heparin calcium 25000 UNT/ML Injectable Solution"
                },
                {
                  "code": "854227",
                  "display": "enoxaparin sodium 100 MG/ML"
                },
                {
                  "code": "854228",
                  "display": "0.3 ML enoxaparin sodium 100 MG/ML Prefilled Syringe"
                },
                {
                  "code": "854231",
                  "display": "enoxaparin sodium 100 MG/ML [Lovenox]"
                },
                {
                  "code": "854232",
                  "display": "0.3 ML enoxaparin sodium 100 MG/ML Prefilled Syringe [Lovenox]"
                },
                {
                  "code": "854235",
                  "display": "0.4 ML enoxaparin sodium 100 MG/ML Prefilled Syringe"
                },
                {
                  "code": "854236",
                  "display": "0.4 ML enoxaparin sodium 100 MG/ML Prefilled Syringe [Lovenox]"
                },
                {
                  "code": "854238",
                  "display": "0.6 ML enoxaparin sodium 100 MG/ML Prefilled Syringe"
                },
                {
                  "code": "854239",
                  "display": "0.6 ML enoxaparin sodium 100 MG/ML Prefilled Syringe [Lovenox]"
                },
                {
                  "code": "854241",
                  "display": "0.8 ML enoxaparin sodium 100 MG/ML Prefilled Syringe"
                },
                {
                  "code": "854242",
                  "display": "0.8 ML enoxaparin sodium 100 MG/ML Prefilled Syringe [Lovenox]"
                },
                {
                  "code": "854244",
                  "display": "enoxaparin sodium 150 MG/ML"
                },
                {
                  "code": "854245",
                  "display": "0.8 ML enoxaparin sodium 150 MG/ML Prefilled Syringe"
                },
                {
                  "code": "854246",
                  "display": "enoxaparin sodium 150 MG/ML [Lovenox]"
                },
                {
                  "code": "854247",
                  "display": "0.8 ML enoxaparin sodium 150 MG/ML Prefilled Syringe [Lovenox]"
                },
                {
                  "code": "854248",
                  "display": "1 ML enoxaparin sodium 100 MG/ML Prefilled Syringe"
                },
                {
                  "code": "854249",
                  "display": "1 ML enoxaparin sodium 100 MG/ML Prefilled Syringe [Lovenox]"
                },
                {
                  "code": "854252",
                  "display": "1 ML enoxaparin sodium 150 MG/ML Prefilled Syringe"
                },
                {
                  "code": "854253",
                  "display": "1 ML enoxaparin sodium 150 MG/ML Prefilled Syringe [Lovenox]"
                },
                {
                  "code": "854255",
                  "display": "enoxaparin sodium 100 MG/ML Injectable Solution"
                },
                {
                  "code": "854256",
                  "display": "enoxaparin sodium 100 MG/ML Injectable Solution [Lovenox]"
                },
                {
                  "code": "855287",
                  "display": "warfarin sodium 1 MG"
                },
                {
                  "code": "855288",
                  "display": "warfarin sodium 1 MG Oral Tablet"
                },
                {
                  "code": "855289",
                  "display": "warfarin sodium 1 MG [Coumadin]"
                },
                {
                  "code": "855290",
                  "display": "warfarin sodium 1 MG Oral Tablet [Coumadin]"
                },
                {
                  "code": "855291",
                  "display": "warfarin sodium 1 MG [Jantoven]"
                },
                {
                  "code": "855292",
                  "display": "warfarin sodium 1 MG Oral Tablet [Jantoven]"
                },
                {
                  "code": "855295",
                  "display": "warfarin sodium 10 MG"
                },
                {
                  "code": "855296",
                  "display": "warfarin sodium 10 MG Oral Tablet"
                },
                {
                  "code": "855297",
                  "display": "warfarin sodium 10 MG [Coumadin]"
                },
                {
                  "code": "855298",
                  "display": "warfarin sodium 10 MG Oral Tablet [Coumadin]"
                },
                {
                  "code": "855299",
                  "display": "warfarin sodium 10 MG [Jantoven]"
                },
                {
                  "code": "855300",
                  "display": "warfarin sodium 10 MG Oral Tablet [Jantoven]"
                },
                {
                  "code": "855301",
                  "display": "warfarin sodium 2 MG"
                },
                {
                  "code": "855302",
                  "display": "warfarin sodium 2 MG Oral Tablet"
                },
                {
                  "code": "855303",
                  "display": "warfarin sodium 2 MG [Coumadin]"
                },
                {
                  "code": "855304",
                  "display": "warfarin sodium 2 MG Oral Tablet [Coumadin]"
                },
                {
                  "code": "855305",
                  "display": "warfarin sodium 2 MG [Jantoven]"
                },
                {
                  "code": "855306",
                  "display": "warfarin sodium 2 MG Oral Tablet [Jantoven]"
                },
                {
                  "code": "855311",
                  "display": "warfarin sodium 2.5 MG"
                },
                {
                  "code": "855312",
                  "display": "warfarin sodium 2.5 MG Oral Tablet"
                },
                {
                  "code": "855313",
                  "display": "warfarin sodium 2.5 MG [Coumadin]"
                },
                {
                  "code": "855314",
                  "display": "warfarin sodium 2.5 MG Oral Tablet [Coumadin]"
                },
                {
                  "code": "855315",
                  "display": "warfarin sodium 2.5 MG [Jantoven]"
                },
                {
                  "code": "855317",
                  "display": "warfarin sodium 3 MG"
                },
                {
                  "code": "855318",
                  "display": "warfarin sodium 3 MG Oral Tablet"
                },
                {
                  "code": "855319",
                  "display": "warfarin sodium 3 MG [Coumadin]"
                },
                {
                  "code": "855320",
                  "display": "warfarin sodium 3 MG Oral Tablet [Coumadin]"
                },
                {
                  "code": "855321",
                  "display": "warfarin sodium 3 MG [Jantoven]"
                },
                {
                  "code": "855322",
                  "display": "warfarin sodium 3 MG Oral Tablet [Jantoven]"
                },
                {
                  "code": "855323",
                  "display": "warfarin sodium 4 MG"
                },
                {
                  "code": "855324",
                  "display": "warfarin sodium 4 MG Oral Tablet"
                },
                {
                  "code": "855325",
                  "display": "warfarin sodium 4 MG [Coumadin]"
                },
                {
                  "code": "855326",
                  "display": "warfarin sodium 4 MG Oral Tablet [Coumadin]"
                },
                {
                  "code": "855327",
                  "display": "warfarin sodium 4 MG [Jantoven]"
                },
                {
                  "code": "855328",
                  "display": "warfarin sodium 4 MG Oral Tablet [Jantoven]"
                },
                {
                  "code": "855331",
                  "display": "warfarin sodium 5 MG"
                },
                {
                  "code": "855332",
                  "display": "warfarin sodium 5 MG Oral Tablet"
                },
                {
                  "code": "855333",
                  "display": "warfarin sodium 5 MG [Coumadin]"
                },
                {
                  "code": "855334",
                  "display": "warfarin sodium 5 MG Oral Tablet [Coumadin]"
                },
                {
                  "code": "855335",
                  "display": "warfarin sodium 5 MG [Jantoven]"
                },
                {
                  "code": "855336",
                  "display": "warfarin sodium 5 MG Oral Tablet [Jantoven]"
                },
                {
                  "code": "855337",
                  "display": "warfarin sodium 6 MG"
                },
                {
                  "code": "855338",
                  "display": "warfarin sodium 6 MG Oral Tablet"
                },
                {
                  "code": "855339",
                  "display": "warfarin sodium 6 MG [Coumadin]"
                },
                {
                  "code": "855340",
                  "display": "warfarin sodium 6 MG Oral Tablet [Coumadin]"
                },
                {
                  "code": "855341",
                  "display": "warfarin sodium 6 MG [Jantoven]"
                },
                {
                  "code": "855342",
                  "display": "warfarin sodium 6 MG Oral Tablet [Jantoven]"
                },
                {
                  "code": "855343",
                  "display": "warfarin sodium 7.5 MG"
                },
                {
                  "code": "855344",
                  "display": "warfarin sodium 7.5 MG Oral Tablet"
                },
                {
                  "code": "855345",
                  "display": "warfarin sodium 7.5 MG [Coumadin]"
                },
                {
                  "code": "855346",
                  "display": "warfarin sodium 7.5 MG Oral Tablet [Coumadin]"
                },
                {
                  "code": "855347",
                  "display": "warfarin sodium 7.5 MG [Jantoven]"
                },
                {
                  "code": "855348",
                  "display": "warfarin sodium 7.5 MG Oral Tablet [Jantoven]"
                },
                {
                  "code": "861356",
                  "display": "0.8 ML fondaparinux sodium 12.5 MG/ML Prefilled Syringe"
                },
                {
                  "code": "861357",
                  "display": "fondaparinux sodium 12.5 MG/ML [Arixtra]"
                },
                {
                  "code": "861358",
                  "display": "0.8 ML fondaparinux sodium 12.5 MG/ML Prefilled Syringe [Arixtra]"
                },
                {
                  "code": "861359",
                  "display": "fondaparinux sodium 5 MG/ML"
                },
                {
                  "code": "861360",
                  "display": "0.5 ML fondaparinux sodium 5 MG/ML Prefilled Syringe"
                },
                {
                  "code": "861361",
                  "display": "fondaparinux sodium 5 MG/ML [Arixtra]"
                },
                {
                  "code": "861362",
                  "display": "0.5 ML fondaparinux sodium 5 MG/ML Prefilled Syringe [Arixtra]"
                },
                {
                  "code": "861363",
                  "display": "0.4 ML fondaparinux sodium 12.5 MG/ML Prefilled Syringe"
                },
                {
                  "code": "861364",
                  "display": "0.4 ML fondaparinux sodium 12.5 MG/ML Prefilled Syringe [Arixtra]"
                },
                {
                  "code": "861365",
                  "display": "0.6 ML fondaparinux sodium 12.5 MG/ML Prefilled Syringe"
                },
                {
                  "code": "861366",
                  "display": "0.6 ML fondaparinux sodium 12.5 MG/ML Prefilled Syringe [Arixtra]"
                },
                {
                  "code": "978712",
                  "display": "tinzaparin sodium 20000 UNT/ML"
                },
                {
                  "code": "978713",
                  "display": "tinzaparin sodium 20000 UNT/ML Injectable Solution"
                },
                {
                  "code": "978716",
                  "display": "tinzaparin sodium 10000 UNT/ML"
                },
                {
                  "code": "978717",
                  "display": "tinzaparin sodium 10000 UNT/ML Injectable Solution"
                },
                {
                  "code": "978724",
                  "display": "dalteparin sodium 12500 UNT/ML"
                },
                {
                  "code": "978725",
                  "display": "0.2 ML dalteparin sodium 12500 UNT/ML Prefilled Syringe"
                },
                {
                  "code": "978726",
                  "display": "dalteparin sodium 12500 UNT/ML [Fragmin]"
                },
                {
                  "code": "978727",
                  "display": "0.2 ML dalteparin sodium 12500 UNT/ML Prefilled Syringe [Fragmin]"
                },
                {
                  "code": "978732",
                  "display": "dalteparin sodium 25000 UNT/ML"
                },
                {
                  "code": "978733",
                  "display": "0.2 ML dalteparin sodium 25000 UNT/ML Prefilled Syringe"
                },
                {
                  "code": "978734",
                  "display": "dalteparin sodium 25000 UNT/ML [Fragmin]"
                },
                {
                  "code": "978735",
                  "display": "0.2 ML dalteparin sodium 25000 UNT/ML Prefilled Syringe [Fragmin]"
                },
                {
                  "code": "978736",
                  "display": "0.3 ML dalteparin sodium 25000 UNT/ML Prefilled Syringe"
                },
                {
                  "code": "978737",
                  "display": "0.3 ML dalteparin sodium 25000 UNT/ML Prefilled Syringe [Fragmin]"
                },
                {
                  "code": "978740",
                  "display": "0.5 ML dalteparin sodium 25000 UNT/ML Prefilled Syringe"
                },
                {
                  "code": "978741",
                  "display": "0.5 ML dalteparin sodium 25000 UNT/ML Prefilled Syringe [Fragmin]"
                },
                {
                  "code": "978744",
                  "display": "0.6 ML dalteparin sodium 25000 UNT/ML Prefilled Syringe"
                },
                {
                  "code": "978745",
                  "display": "0.6 ML dalteparin sodium 25000 UNT/ML Prefilled Syringe [Fragmin]"
                },
                {
                  "code": "978746",
                  "display": "0.72 ML dalteparin sodium 25000 UNT/ML Prefilled Syringe"
                },
                {
                  "code": "978747",
                  "display": "0.72 ML dalteparin sodium 25000 UNT/ML Prefilled Syringe [Fragmin]"
                },
                {
                  "code": "978754",
                  "display": "dalteparin sodium 10000 UNT/ML"
                },
                {
                  "code": "978755",
                  "display": "1 ML dalteparin sodium 10000 UNT/ML Prefilled Syringe"
                },
                {
                  "code": "978756",
                  "display": "dalteparin sodium 10000 UNT/ML [Fragmin]"
                },
                {
                  "code": "978757",
                  "display": "1 ML dalteparin sodium 10000 UNT/ML Prefilled Syringe [Fragmin]"
                },
                {
                  "code": "978759",
                  "display": "dalteparin sodium 10000 UNT/ML Injectable Solution"
                },
                {
                  "code": "978773",
                  "display": "dalteparin sodium 2500 UNT/ML"
                },
                {
                  "code": "978774",
                  "display": "dalteparin sodium 2500 UNT/ML Injectable Solution"
                },
                {
                  "code": "978777",
                  "display": "dalteparin sodium 25000 UNT/ML Injectable Solution"
                },
                {
                  "code": "978778",
                  "display": "dalteparin sodium 25000 UNT/ML Injectable Solution [Fragmin]"
                },
                {
                  "code": "9877",
                  "display": "heparin sodium"
                }
              ]
            }
          ]
        }
      },
      "request": {
        "method": "PUT",
        "url": "ValueSet/2.16.840.1.113883.17.4077.2.1012"
      }
    },
    {
      "resource": {
        "resourceType": "ValueSet",
        "id": "2.16.840.1.113762.1.4.1026.1",
        "url": "https://workbench.phema.science/fhir/ValueSet/2.16.840.1.113762.1.4.1026.1",
        "status": "active",
        "name": "BPH Specimens",
        "publisher": "PhEMA Workbench OMOP Concept Set Transformer",
        "compose": {
          "include": [
            {
              "system": "http://loinc.org",
              "concept": [
                {
                  "code": "75520-7",
                  "display": "Biobank specimens are stored and available for research"
                },
                {
                  "code": "LP185886-1",
                  "display": "Biobank specimens are stored and available for research"
                }
              ]
            }
          ]
        }
      },
      "request": {
        "method": "PUT",
        "url": "ValueSet/2.16.840.1.113762.1.4.1026.1"
      }
    },
    {
      "resource": {
        "resourceType": "Composition",
        "id": "phema-1516.thrombotic-event-1.0.0",
        "identifier": [
          {
            "system": "https://workbench.phema.science/identifier/phenotype",
            "value": "1516.thrombotic-event"
          }
        ],
        "status": "preliminary",
        "date": "2021-03-16T18:09:00-07:00",
        "type": {
          "coding": [
            {
              "system": "http://ncimeta.nci.nih.gov",
              "code": "C166209"
            }
          ]
        },
        "title": " Phenotype Definition",
        "author": [
          {
            "reference": "Organization/phema-org"
          }
        ],
        "custodian": {
          "reference": "Organization/phema-org"
        },
        "relatesTo": [
          {
            "code": "appends",
            "targetIdentifier": {
              "system": "urn:ietf:rfc:3986",
              "value": "https://projectphema.org"
            }
          }
        ],
        "section": [
          {
            "title": "Phenotype Entry Point",
            "text": {
              "div": "The CQL library containing the phenotype 'Case' definition. The referenced Binary resource contains phenotype metadata from PheKB."
            },
            "author": [
              {
                "reference": "Organization/phema-org"
              }
            ],
            "entry": [
              {
                "reference": "Library/library-1516.thrombotic-event-1.0.0"
              },
              {
                "reference": "Binary/metadata-1516.thrombotic-event"
              }
            ]
          },
          {
            "title": "Dependent library: library-FHIRHelpers-4.0.0",
            "text": {
              "div": "Library that the main phenotype entry point depends on"
            },
            "author": [
              {
                "reference": "Organization/phema-org"
              }
            ],
            "entry": [
              {
                "reference": "Library/library-FHIRHelpers-4.0.0"
              }
            ]
          },
          {
            "title": "Dependent library: library-PhEMATemporal-1.0.0",
            "text": {
              "div": "Library that the main phenotype entry point depends on"
            },
            "author": [
              {
                "reference": "Organization/phema-org"
              }
            ],
            "entry": [
              {
                "reference": "Library/library-PhEMATemporal-1.0.0"
              }
            ]
          },
          {
            "title": "Dependent library: library-PhEMAHelpers-1.0.0",
            "text": {
              "div": "Library that the main phenotype entry point depends on"
            },
            "author": [
              {
                "reference": "Organization/phema-org"
              }
            ],
            "entry": [
              {
                "reference": "Library/library-PhEMAHelpers-1.0.0"
              }
            ]
          },
          {
            "title": "Dependent value set: 1516.myocardial-infarction-dx",
            "text": {
              "div": "Value set that the main phenotype entry point or one of its dependencies uses"
            },
            "author": [
              {
                "reference": "Organization/phema-org"
              }
            ],
            "entry": [
              {
                "reference": "ValueSet/1516.myocardial-infarction-dx"
              }
            ]
          },
          {
            "title": "Dependent value set: 1516.troponin-labs",
            "text": {
              "div": "Value set that the main phenotype entry point or one of its dependencies uses"
            },
            "author": [
              {
                "reference": "Organization/phema-org"
              }
            ],
            "entry": [
              {
                "reference": "ValueSet/1516.troponin-labs"
              }
            ]
          },
          {
            "title": "Dependent value set: 1516.ecg-proc",
            "text": {
              "div": "Value set that the main phenotype entry point or one of its dependencies uses"
            },
            "author": [
              {
                "reference": "Organization/phema-org"
              }
            ],
            "entry": [
              {
                "reference": "ValueSet/1516.ecg-proc"
              }
            ]
          },
          {
            "title": "Dependent value set: 1516.coronary-angiogram-proc",
            "text": {
              "div": "Value set that the main phenotype entry point or one of its dependencies uses"
            },
            "author": [
              {
                "reference": "Organization/phema-org"
              }
            ],
            "entry": [
              {
                "reference": "ValueSet/1516.coronary-angiogram-proc"
              }
            ]
          },
          {
            "title": "Dependent value set: 1516.stroke-dx",
            "text": {
              "div": "Value set that the main phenotype entry point or one of its dependencies uses"
            },
            "author": [
              {
                "reference": "Organization/phema-org"
              }
            ],
            "entry": [
              {
                "reference": "ValueSet/1516.stroke-dx"
              }
            ]
          },
          {
            "title": "Dependent value set: 1516.stroke-meds",
            "text": {
              "div": "Value set that the main phenotype entry point or one of its dependencies uses"
            },
            "author": [
              {
                "reference": "Organization/phema-org"
              }
            ],
            "entry": [
              {
                "reference": "ValueSet/1516.stroke-meds"
              }
            ]
          },
          {
            "title": "Dependent value set: 1516.carotid-duplex",
            "text": {
              "div": "Value set that the main phenotype entry point or one of its dependencies uses"
            },
            "author": [
              {
                "reference": "Organization/phema-org"
              }
            ],
            "entry": [
              {
                "reference": "ValueSet/1516.carotid-duplex"
              }
            ]
          },
          {
            "title": "Dependent value set: 1516.neurology-encounter",
            "text": {
              "div": "Value set that the main phenotype entry point or one of its dependencies uses"
            },
            "author": [
              {
                "reference": "Organization/phema-org"
              }
            ],
            "entry": [
              {
                "reference": "ValueSet/1516.neurology-encounter"
              }
            ]
          },
          {
            "title": "Dependent value set: 1516.ct-scan-head-proc",
            "text": {
              "div": "Value set that the main phenotype entry point or one of its dependencies uses"
            },
            "author": [
              {
                "reference": "Organization/phema-org"
              }
            ],
            "entry": [
              {
                "reference": "ValueSet/1516.ct-scan-head-proc"
              }
            ]
          },
          {
            "title": "Dependent value set: 1516.mri-brain-proc",
            "text": {
              "div": "Value set that the main phenotype entry point or one of its dependencies uses"
            },
            "author": [
              {
                "reference": "Organization/phema-org"
              }
            ],
            "entry": [
              {
                "reference": "ValueSet/1516.mri-brain-proc"
              }
            ]
          },
          {
            "title": "Dependent value set: 1516.deep-vein-thrombosis-dx",
            "text": {
              "div": "Value set that the main phenotype entry point or one of its dependencies uses"
            },
            "author": [
              {
                "reference": "Organization/phema-org"
              }
            ],
            "entry": [
              {
                "reference": "ValueSet/1516.deep-vein-thrombosis-dx"
              }
            ]
          },
          {
            "title": "Dependent value set: 1516.d-dimer-fibrin-labs",
            "text": {
              "div": "Value set that the main phenotype entry point or one of its dependencies uses"
            },
            "author": [
              {
                "reference": "Organization/phema-org"
              }
            ],
            "entry": [
              {
                "reference": "ValueSet/1516.d-dimer-fibrin-labs"
              }
            ]
          },
          {
            "title": "Dependent value set: 1516.pulmonary-embolism-dx",
            "text": {
              "div": "Value set that the main phenotype entry point or one of its dependencies uses"
            },
            "author": [
              {
                "reference": "Organization/phema-org"
              }
            ],
            "entry": [
              {
                "reference": "ValueSet/1516.pulmonary-embolism-dx"
              }
            ]
          },
          {
            "title": "Dependent value set: 1516.ct-scan-chest",
            "text": {
              "div": "Value set that the main phenotype entry point or one of its dependencies uses"
            },
            "author": [
              {
                "reference": "Organization/phema-org"
              }
            ],
            "entry": [
              {
                "reference": "ValueSet/1516.ct-scan-chest"
              }
            ]
          },
          {
            "title": "Dependent value set: 1516.vq-scan",
            "text": {
              "div": "Value set that the main phenotype entry point or one of its dependencies uses"
            },
            "author": [
              {
                "reference": "Organization/phema-org"
              }
            ],
            "entry": [
              {
                "reference": "ValueSet/1516.vq-scan"
              }
            ]
          },
          {
            "title": "Dependent value set: 1516.mesenteric-splanchnic-thrombosis-dx",
            "text": {
              "div": "Value set that the main phenotype entry point or one of its dependencies uses"
            },
            "author": [
              {
                "reference": "Organization/phema-org"
              }
            ],
            "entry": [
              {
                "reference": "ValueSet/1516.mesenteric-splanchnic-thrombosis-dx"
              }
            ]
          },
          {
            "title": "Dependent value set: 1516.ultrasonography-proc",
            "text": {
              "div": "Value set that the main phenotype entry point or one of its dependencies uses"
            },
            "author": [
              {
                "reference": "Organization/phema-org"
              }
            ],
            "entry": [
              {
                "reference": "ValueSet/1516.ultrasonography-proc"
              }
            ]
          },
          {
            "title": "Dependent value set: 1516.ct-scan-abdomen",
            "text": {
              "div": "Value set that the main phenotype entry point or one of its dependencies uses"
            },
            "author": [
              {
                "reference": "Organization/phema-org"
              }
            ],
            "entry": [
              {
                "reference": "ValueSet/1516.ct-scan-abdomen"
              }
            ]
          },
          {
            "title": "Dependent value set: 1516.mri-proc",
            "text": {
              "div": "Value set that the main phenotype entry point or one of its dependencies uses"
            },
            "author": [
              {
                "reference": "Organization/phema-org"
              }
            ],
            "entry": [
              {
                "reference": "ValueSet/1516.mri-proc"
              }
            ]
          },
          {
            "title": "Dependent value set: 1516.superficial-vein-thrombosis-dx",
            "text": {
              "div": "Value set that the main phenotype entry point or one of its dependencies uses"
            },
            "author": [
              {
                "reference": "Organization/phema-org"
              }
            ],
            "entry": [
              {
                "reference": "ValueSet/1516.superficial-vein-thrombosis-dx"
              }
            ]
          },
          {
            "title": "Dependent value set: 1516.other-arterial-thrombosis-dx",
            "text": {
              "div": "Value set that the main phenotype entry point or one of its dependencies uses"
            },
            "author": [
              {
                "reference": "Organization/phema-org"
              }
            ],
            "entry": [
              {
                "reference": "ValueSet/1516.other-arterial-thrombosis-dx"
              }
            ]
          },
          {
            "title": "Dependent value set: 1516.placenta-thrombosis-dx",
            "text": {
              "div": "Value set that the main phenotype entry point or one of its dependencies uses"
            },
            "author": [
              {
                "reference": "Organization/phema-org"
              }
            ],
            "entry": [
              {
                "reference": "ValueSet/1516.placenta-thrombosis-dx"
              }
            ]
          },
          {
            "title": "Dependent value set: 1516.central-nervous-system-thrombosis-dx",
            "text": {
              "div": "Value set that the main phenotype entry point or one of its dependencies uses"
            },
            "author": [
              {
                "reference": "Organization/phema-org"
              }
            ],
            "entry": [
              {
                "reference": "ValueSet/1516.central-nervous-system-thrombosis-dx"
              }
            ]
          },
          {
            "title": "Dependent value set: 1516.endocarial-thrombosis-dx",
            "text": {
              "div": "Value set that the main phenotype entry point or one of its dependencies uses"
            },
            "author": [
              {
                "reference": "Organization/phema-org"
              }
            ],
            "entry": [
              {
                "reference": "ValueSet/1516.endocarial-thrombosis-dx"
              }
            ]
          },
          {
            "title": "Dependent value set: 2.16.840.1.113883.17.4077.2.1012",
            "text": {
              "div": "Value set that the main phenotype entry point or one of its dependencies uses"
            },
            "author": [
              {
                "reference": "Organization/phema-org"
              }
            ],
            "entry": [
              {
                "reference": "ValueSet/2.16.840.1.113883.17.4077.2.1012"
              }
            ]
          },
          {
            "title": "Dependent value set: 2.16.840.1.113762.1.4.1026.1",
            "text": {
              "div": "Value set that the main phenotype entry point or one of its dependencies uses"
            },
            "author": [
              {
                "reference": "Organization/phema-org"
              }
            ],
            "entry": [
              {
                "reference": "ValueSet/2.16.840.1.113762.1.4.1026.1"
              }
            ]
          }
        ]
      },
      "request": {
        "method": "PUT",
        "url": "Composition/phema-1516.thrombotic-event-1.0.0"
      }
    }
  ]
}